time,ax,ay,az,wx,wy,wz,latitude,longitude,altitude,speed
2026-02-05T09:57:33.130Z,0.0832,-0.5406,-0.3716,-0.0365,-0.1773,0.0802,28.411297183333332,76.92672784999999,222.9000,4.8872
2026-02-05T09:57:33.138Z,0.0832,-0.5406,-0.3716,-0.0276,-0.1250,0.0296,28.411297183333332,76.92672784999999,222.9000,4.8872
2026-02-05T09:57:33.149Z,1.2810,-0.4356,2.7752,-0.0493,-0.1780,0.0492,28.411297183333332,76.92672784999999,222.9000,4.8872
2026-02-05T09:57:33.159Z,-2.1136,1.3561,0.1971,-0.0251,-0.1454,0.0306,28.411297183333332,76.92672784999999,222.9000,4.8872
2026-02-05T09:57:33.169Z,1.9321,-0.2783,2.0927,0.0574,0.0830,0.0648,28.411297183333332,76.92672784999999,222.9000,4.8872
2026-02-05T09:57:33.179Z,1.9321,-0.2783,2.0927,-0.0109,0.0082,0.0455,28.411297183333332,76.92672784999999,222.9000,4.8872
2026-02-05T09:57:33.188Z,1.1021,0.1323,-0.2062,-0.0109,0.0082,0.0455,28.411297183333332,76.92672784999999,222.9000,4.8872
2026-02-05T09:57:33.200Z,0.5791,-0.2719,-0.8957,-0.0209,-0.1258,0.0579,28.411297183333332,76.92672784999999,222.9000,4.8872
2026-02-05T09:57:33.208Z,-1.2216,1.3236,-0.0429,-0.0209,-0.1258,0.0579,28.411297183333332,76.92672784999999,222.9000,4.8872
2026-02-05T09:57:33.219Z,2.1892,-0.1342,-0.2642,-0.0211,0.0703,0.0983,28.411297183333332,76.92672784999999,222.9000,4.8872
2026-02-05T09:57:33.230Z,2.1892,-0.1342,-0.2642,-0.0243,0.0394,0.0687,28.411297183333332,76.92672784999999,222.9000,4.8872
2026-02-05T09:57:33.238Z,0.7307,0.6435,-1.1259,-0.0243,0.0394,0.0687,28.411297183333332,76.92672784999999,222.9000,4.8872
2026-02-05T09:57:33.249Z,1.0542,0.5506,0.8400,-0.0499,-0.0245,0.0718,28.411297183333332,76.92672784999999,222.9000,4.8872
2026-02-05T09:57:33.258Z,-0.3499,0.0729,0.2919,-0.0499,-0.0245,0.0718,28.411297183333332,76.92672784999999,222.9000,4.8872
2026-02-05T09:57:33.270Z,1.6531,-0.4006,1.5334,0.0462,0.2212,0.0936,28.411297183333332,76.92672784999999,222.9000,4.8872
2026-02-05T09:57:33.278Z,1.6531,-0.4006,1.5334,0.0462,0.2212,0.0936,28.411297183333332,76.92672784999999,222.9000,4.8872
2026-02-05T09:57:33.289Z,-0.0636,0.3488,-0.7690,0.0014,0.0537,0.0742,28.411297183333332,76.92672784999999,222.9000,4.8872
2026-02-05T09:57:33.300Z,-0.2314,0.1278,-0.4772,0.0133,0.0903,0.0379,28.411297183333332,76.92672784999999,222.9000,4.8872
2026-02-05T09:57:33.310Z,-0.5614,-0.0907,1.7730,-0.0534,0.1249,0.0857,28.411297183333332,76.92672784999999,222.9000,4.8872
2026-02-05T09:57:33.319Z,-0.3580,1.1574,0.0364,-0.0219,0.1233,0.0908,28.411297183333332,76.92672784999999,222.9000,4.8872
2026-02-05T09:57:33.330Z,-0.3580,1.1574,0.0364,0.0470,0.1039,0.0202,28.411297183333332,76.92672784999999,222.9000,4.8872
2026-02-05T09:57:33.338Z,-0.5388,-0.2493,1.1714,0.0470,0.1039,0.0202,28.411297183333332,76.92672784999999,222.9000,4.8872
2026-02-05T09:57:33.349Z,-0.7497,0.1567,-1.1132,-0.0238,-0.0259,0.0758,28.411297183333332,76.92672784999999,222.9000,4.8872
2026-02-05T09:57:33.360Z,1.9213,-0.0134,-0.0298,0.0249,0.1743,0.0576,28.411297183333332,76.92672784999999,222.9000,4.8872
2026-02-05T09:57:33.369Z,-1.1073,-0.1514,-1.9667,-0.0557,-0.0566,0.0666,28.411297183333332,76.92672784999999,222.9000,4.8872
2026-02-05T09:57:33.379Z,-1.1073,-0.1514,-1.9667,0.0101,-0.0132,0.0259,28.411297183333332,76.92672784999999,222.9000,4.8872
2026-02-05T09:57:33.388Z,-2.1621,-0.1507,-0.1118,-0.0198,-0.0599,0.0204,28.411297183333332,76.92672784999999,222.9000,4.8872
2026-02-05T09:57:33.399Z,-1.0424,0.2687,1.1481,-0.0190,0.0325,0.0480,28.411297183333332,76.92672784999999,222.9000,4.8872
2026-02-05T09:57:33.408Z,0.8574,0.8235,-1.3429,-0.0190,0.0325,0.0480,28.411297183333332,76.92672784999999,222.9000,4.8872
2026-02-05T09:57:33.419Z,-1.9046,0.5518,0.5219,-0.0319,-0.0746,-0.0070,28.411297183333332,76.92672784999999,222.9000,4.8872
2026-02-05T09:57:33.430Z,-1.9046,0.5518,0.5219,-0.0269,-0.0407,-0.0276,28.411297183333332,76.92672784999999,222.9000,4.8872
2026-02-05T09:57:33.439Z,-1.9801,0.0392,-1.1222,-0.0448,-0.0804,0.0235,28.411297183333332,76.92672784999999,222.9000,4.8872
2026-02-05T09:57:33.449Z,-0.3299,0.0593,-0.3189,0.0236,0.1901,0.0232,28.411297183333332,76.92672784999999,222.9000,4.8872
2026-02-05T09:57:33.459Z,1.4821,0.2743,0.6889,-0.0495,-0.0026,-0.0148,28.411297183333332,76.92672784999999,222.9000,4.8872
2026-02-05T09:57:33.476Z,-3.7955,0.2876,-1.1505,-0.0472,-0.1080,-0.0116,28.411297183333332,76.92672784999999,222.9000,4.8872
2026-02-05T09:57:33.478Z,-3.7955,0.2876,-1.1505,-0.1106,-0.0795,-0.0370,28.411297183333332,76.92672784999999,222.9000,4.8872
2026-02-05T09:57:33.488Z,-1.9699,0.2202,-0.0211,0.0114,-0.0364,0.0519,28.411297183333332,76.92672784999999,222.9000,4.8872
2026-02-05T09:57:33.499Z,0.0592,-0.7277,0.0445,-0.0679,0.0673,-0.0194,28.411297183333332,76.92672784999999,222.9000,4.8872
2026-02-05T09:57:33.508Z,0.0592,-0.7277,0.0445,-0.0821,-0.1464,0.0042,28.411297183333332,76.92672784999999,222.9000,4.8872
2026-02-05T09:57:33.519Z,-2.6104,0.3781,0.6078,-0.0240,-0.0236,-0.0392,28.411297183333332,76.92672784999999,222.9000,4.8872
2026-02-05T09:57:33.530Z,-2.6104,0.3781,0.6078,-0.0643,-0.1420,-0.0431,28.411297183333332,76.92672784999999,222.9000,4.8872
2026-02-05T09:57:33.539Z,0.5970,1.0590,-1.6310,-0.1556,-0.1549,0.0060,28.411297183333332,76.92672784999999,222.9000,4.8872
2026-02-05T09:57:33.549Z,0.5970,1.0590,-1.6310,0.0200,0.0005,0.0063,28.411297183333332,76.92672784999999,222.9000,4.8872
2026-02-05T09:57:33.559Z,0.0989,0.0897,1.7980,-0.1055,-0.0499,0.0181,28.411297183333332,76.92672784999999,222.9000,4.8872
2026-02-05T09:57:33.569Z,-3.2440,-0.0408,-2.3900,-0.1451,-0.2370,0.0050,28.411297183333332,76.92672784999999,222.9000,4.8872
2026-02-05T09:57:33.579Z,-3.2440,-0.0408,-2.3900,-0.0290,-0.0248,-0.0293,28.411297183333332,76.92672784999999,222.9000,4.8872
2026-02-05T09:57:33.590Z,-0.1853,0.9967,0.6919,-0.0848,-0.1098,-0.0189,28.411297183333332,76.92672784999999,222.9000,4.8872
2026-02-05T09:57:33.599Z,-0.1853,0.9967,0.6919,-0.1008,-0.0093,0.0480,28.411297183333332,76.92672784999999,222.9000,4.8872
2026-02-05T09:57:33.610Z,1.4921,-0.6926,-1.8873,-0.0382,-0.0739,0.0416,28.411297183333332,76.92672784999999,222.9000,4.8872
2026-02-05T09:57:33.618Z,-0.3322,-0.4565,0.2601,-0.0845,-0.0288,0.0016,28.411297183333332,76.92672784999999,222.9000,4.8872
2026-02-05T09:57:33.629Z,0.5007,0.9809,0.2799,-0.0606,-0.0373,0.0102,28.411297183333332,76.92672784999999,222.9000,4.8872
2026-02-05T09:57:33.639Z,-0.3377,-0.5415,-0.1037,-0.0857,-0.1089,0.0280,28.411297183333332,76.92672784999999,222.9000,4.8872
2026-02-05T09:57:33.649Z,0.0070,0.1623,-0.4320,-0.0270,0.0992,0.0069,28.411297183333332,76.92672784999999,222.9000,4.8872
2026-02-05T09:57:33.659Z,0.5489,-0.7269,0.3248,-0.1020,-0.1558,0.0752,28.411297183333332,76.92672784999999,222.9000,4.8872
2026-02-05T09:57:33.670Z,-0.8474,0.1280,0.6126,-0.0556,0.0534,-0.0002,28.411297183333332,76.92672784999999,222.9000,4.8872
2026-02-05T09:57:33.679Z,-0.8474,0.1280,0.6126,-0.0283,-0.0516,0.0225,28.411297183333332,76.92672784999999,222.9000,4.8872
2026-02-05T09:57:33.689Z,0.5981,0.2688,1.7986,-0.0841,-0.0600,0.0355,28.411297183333332,76.92672784999999,222.9000,4.8872
2026-02-05T09:57:33.699Z,-1.3652,0.7074,0.2446,0.0044,0.0724,0.0389,28.411297183333332,76.92672784999999,222.9000,4.8872
2026-02-05T09:57:33.709Z,0.2788,-1.5250,-0.0824,-0.0498,-0.0293,0.0291,28.411297183333332,76.92672784999999,222.9000,4.8872
2026-02-05T09:57:33.718Z,-0.0709,0.3521,-0.3378,-0.0207,-0.0427,0.0473,28.411297183333332,76.92672784999999,222.9000,4.8872
2026-02-05T09:57:33.729Z,-0.0709,0.3521,-0.3378,-0.0394,0.0330,0.0112,28.411297183333332,76.92672784999999,222.9000,4.8872
2026-02-05T09:57:33.739Z,-0.4102,-0.6622,1.6354,-0.0558,-0.1616,0.0511,28.411297183333332,76.92672784999999,222.9000,4.8872
2026-02-05T09:57:33.749Z,-0.1771,0.5588,0.3342,0.0327,0.0463,0.0658,28.411297183333332,76.92672784999999,222.9000,4.8872
2026-02-05T09:57:33.759Z,0.6573,-0.3864,1.1352,-0.0072,0.0541,0.0104,28.411297183333332,76.92672784999999,222.9000,4.8872
2026-02-05T09:57:33.770Z,-1.4233,-0.7547,0.3959,0.0289,-0.1266,0.0031,28.411297183333332,76.92672784999999,222.9000,4.8872
2026-02-05T09:57:33.779Z,-1.4233,-0.7547,0.3959,0.0159,-0.0258,0.0286,28.411297183333332,76.92672784999999,222.9000,4.8872
2026-02-05T09:57:33.791Z,-0.1522,0.4882,0.4857,0.0206,-0.0387,0.0658,28.411250483333337,76.92673536666666,222.9000,5.3502
2026-02-05T09:57:33.799Z,1.1038,-0.1498,-0.0970,0.0090,0.0546,0.0364,28.411250483333337,76.92673536666666,222.9000,5.3502
2026-02-05T09:57:33.809Z,-1.7182,-0.4378,0.5625,0.0094,-0.0085,0.0146,28.411250483333337,76.92673536666666,222.9000,5.3502
2026-02-05T09:57:33.819Z,-2.2570,0.4965,-0.0575,0.0027,-0.1173,-0.0185,28.411250483333337,76.92673536666666,222.9000,5.3502
2026-02-05T09:57:33.829Z,-2.2570,0.4965,-0.0575,0.0093,-0.0660,0.0173,28.411250483333337,76.92673536666666,222.9000,5.3502
2026-02-05T09:57:33.839Z,-0.0107,-0.5305,-0.2402,0.0269,0.0480,0.0829,28.411250483333337,76.92673536666666,222.9000,5.3502
2026-02-05T09:57:33.848Z,1.0387,-0.7067,0.9776,0.0723,0.0632,0.0744,28.411250483333337,76.92673536666666,222.9000,5.3502
2026-02-05T09:57:33.858Z,0.9090,-0.4412,0.9084,0.0061,-0.0730,0.0110,28.411250483333337,76.92673536666666,222.9000,5.3502
2026-02-05T09:57:33.870Z,-0.6035,0.6475,-0.5154,0.0132,-0.0461,0.0206,28.411250483333337,76.92673536666666,222.9000,5.3502
2026-02-05T09:57:33.878Z,-0.6035,0.6475,-0.5154,0.0664,-0.0012,0.0047,28.411250483333337,76.92673536666666,222.9000,5.3502
2026-02-05T09:57:33.889Z,-0.4004,-1.1961,1.2679,-0.0009,0.0386,0.0440,28.411250483333337,76.92673536666666,222.9000,5.3502
2026-02-05T09:57:33.898Z,1.9135,-0.3440,-0.9312,0.0479,-0.0701,0.0514,28.411250483333337,76.92673536666666,222.9000,5.3502
2026-02-05T09:57:33.911Z,1.5195,1.3722,-0.4514,0.0622,0.1157,0.0188,28.411250483333337,76.92673536666666,222.9000,5.3502
2026-02-05T09:57:33.919Z,-1.8015,-0.1254,-0.8361,0.0677,-0.0637,0.0460,28.411250483333337,76.92673536666666,222.9000,5.3502
2026-02-05T09:57:33.929Z,-1.8015,-0.1254,-0.8361,-0.0232,-0.0562,0.0419,28.411250483333337,76.92673536666666,222.9000,5.3502
2026-02-05T09:57:33.938Z,-0.1114,-0.3549,-2.0963,0.0829,0.1074,0.0463,28.411250483333337,76.92673536666666,222.9000,5.3502
2026-02-05T09:57:33.950Z,0.0602,0.3077,0.2413,0.0287,-0.0273,0.0155,28.411250483333337,76.92673536666666,222.9000,5.3502
2026-02-05T09:57:33.959Z,0.0407,-0.2538,-0.8661,0.0109,-0.0052,0.0482,28.411250483333337,76.92673536666666,222.9000,5.3502
2026-02-05T09:57:33.969Z,-0.4388,-0.2371,1.1335,0.1219,0.0409,0.0502,28.411250483333337,76.92673536666666,222.9000,5.3502
2026-02-05T09:57:33.979Z,-0.4388,-0.2371,1.1335,0.0428,0.0549,0.0255,28.411250483333337,76.92673536666666,222.9000,5.3502
2026-02-05T09:57:33.988Z,0.7633,0.3752,-1.2039,0.0896,0.0757,0.0597,28.411250483333337,76.92673536666666,222.9000,5.3502
2026-02-05T09:57:34.000Z,-0.4354,0.8949,-1.0160,0.0440,-0.0280,0.0058,28.411250483333337,76.92673536666666,222.9000,5.3502
2026-02-05T09:57:34.009Z,0.2323,-0.1370,-1.9397,0.0172,0.0031,0.0363,28.411250483333337,76.92673536666666,222.9000,5.3502
2026-02-05T09:57:34.020Z,0.9758,-0.8552,-0.0939,0.0518,0.1246,0.0822,28.411250483333337,76.92673536666666,222.9000,5.3502
2026-02-05T09:57:34.029Z,0.9758,-0.8552,-0.0939,-0.0216,0.0150,0.0203,28.411250483333337,76.92673536666666,222.9000,5.3502
2026-02-05T09:57:34.039Z,0.2729,0.3846,-1.0657,0.0707,0.0949,0.0342,28.411250483333337,76.92673536666666,222.9000,5.3502
2026-02-05T09:57:34.050Z,-0.7589,-0.9643,1.1939,0.0454,0.0457,0.0594,28.411250483333337,76.92673536666666,222.9000,5.3502
2026-02-05T09:57:34.059Z,1.0342,-0.5134,-1.8631,-0.0496,0.0489,0.0275,28.411250483333337,76.92673536666666,222.9000,5.3502
2026-02-05T09:57:34.069Z,0.8794,-0.3484,1.2025,0.1178,0.1217,0.0617,28.411250483333337,76.92673536666666,222.9000,5.3502
2026-02-05T09:57:34.079Z,0.8794,-0.3484,1.2025,0.0382,0.1298,0.0268,28.411250483333337,76.92673536666666,222.9000,5.3502
2026-02-05T09:57:34.089Z,-0.1577,0.3994,0.2483,-0.0290,-0.1246,0.0520,28.411250483333337,76.92673536666666,222.9000,5.3502
2026-02-05T09:57:34.098Z,-2.1810,0.7630,-2.3081,0.0511,0.1576,0.0352,28.411250483333337,76.92673536666666,222.9000,5.3502
2026-02-05T09:57:34.110Z,1.4969,-1.6685,0.1027,-0.0554,0.1085,0.0465,28.411250483333337,76.92673536666666,222.9000,5.3502
2026-02-05T09:57:34.119Z,-0.5592,-0.0173,-1.7203,-0.0310,-0.0595,0.0672,28.411250483333337,76.92673536666666,222.9000,5.3502
2026-02-05T09:57:34.129Z,-0.5592,-0.0173,-1.7203,-0.0067,0.1846,0.0274,28.411250483333337,76.92673536666666,222.9000,5.3502
2026-02-05T09:57:34.138Z,-0.8492,-0.2239,2.2805,0.0232,-0.0728,0.0336,28.411250483333337,76.92673536666666,222.9000,5.3502
2026-02-05T09:57:34.151Z,1.4813,-1.2737,-1.3121,-0.0736,0.0731,0.0495,28.411250483333337,76.92673536666666,222.9000,5.3502
2026-02-05T09:57:34.159Z,0.5497,0.2436,1.3981,0.0465,0.1497,0.1083,28.411250483333337,76.92673536666666,222.9000,5.3502
2026-02-05T09:57:34.169Z,-1.4838,-0.2488,0.5183,-0.0714,0.0920,0.0020,28.411250483333337,76.92673536666666,222.9000,5.3502
2026-02-05T09:57:34.179Z,-2.3048,0.2747,-2.1254,-0.0769,-0.2618,0.0268,28.411250483333337,76.92673536666666,222.9000,5.3502
2026-02-05T09:57:34.188Z,-2.3048,0.2747,-2.1254,-0.0007,0.1249,0.0083,28.411250483333337,76.92673536666666,222.9000,5.3502
2026-02-05T09:57:34.201Z,1.3673,-0.5753,0.7666,-0.0463,0.0019,0.0726,28.411250483333337,76.92673536666666,222.9000,5.3502
2026-02-05T09:57:34.209Z,-0.7608,-0.6564,-0.2260,-0.0734,0.0110,0.0563,28.411250483333337,76.92673536666666,222.9000,5.3502
2026-02-05T09:57:34.220Z,-1.1825,-0.4322,1.0793,-0.0837,-0.0067,0.0068,28.411250483333337,76.92673536666666,222.9000,5.3502
2026-02-05T09:57:34.229Z,-2.6554,0.6358,0.8849,-0.0556,-0.1465,0.0142,28.411250483333337,76.92673536666666,222.9000,5.3502
2026-02-05T09:57:34.240Z,-2.6554,0.6358,0.8849,-0.0856,-0.0189,0.0392,28.411250483333337,76.92673536666666,222.9000,5.3502
2026-02-05T09:57:34.250Z,0.1228,-1.0816,0.5135,-0.0239,0.0297,0.0717,28.411250483333337,76.92673536666666,222.9000,5.3502
2026-02-05T09:57:34.259Z,-0.9881,-0.6219,0.4100,-0.0518,-0.0878,0.0212,28.411250483333337,76.92673536666666,222.9000,5.3502
2026-02-05T09:57:34.268Z,-1.9540,-0.4174,0.4770,-0.0350,-0.0820,0.0305,28.411250483333337,76.92673536666666,222.9000,5.3502
2026-02-05T09:57:34.279Z,-1.2333,0.0529,-0.1058,-0.0920,-0.0790,0.0161,28.411250483333337,76.92673536666666,222.9000,5.3502
2026-02-05T09:57:34.288Z,-1.2333,0.0529,-0.1058,-0.0412,-0.0790,0.0328,28.411250483333337,76.92673536666666,222.9000,5.3502
2026-02-05T09:57:34.301Z,0.4964,-1.2347,0.5997,-0.0484,0.0156,0.0362,28.411250483333337,76.92673536666666,222.9000,5.3502
2026-02-05T09:57:34.310Z,-2.6061,0.2669,-0.4516,-0.0630,-0.1723,0.0482,28.411250483333337,76.92673536666666,222.9000,5.3502
2026-02-05T09:57:34.319Z,-0.9156,0.0395,-0.3364,-0.0873,-0.1339,-0.0025,28.411250483333337,76.92673536666666,222.9000,5.3502
2026-02-05T09:57:34.330Z,1.6128,-0.9333,1.5052,0.0122,0.0026,0.0669,28.411250483333337,76.92673536666666,222.9000,5.3502
2026-02-05T09:57:34.339Z,-0.5369,-0.3977,0.9753,-0.0132,-0.0343,0.0495,28.411250483333337,76.92673536666666,222.9000,5.3502
2026-02-05T09:57:34.351Z,-1.5153,-0.7957,-0.1117,-0.0192,-0.0848,-0.0001,28.411250483333337,76.92673536666666,222.9000,5.3502
2026-02-05T09:57:34.359Z,-1.0877,-0.9863,0.3212,-0.0290,-0.1195,0.0152,28.411250483333337,76.92673536666666,222.9000,5.3502
2026-02-05T09:57:34.368Z,-0.0063,-0.5502,-1.1685,-0.0382,-0.1858,0.0418,28.411250483333337,76.92673536666666,222.9000,5.3502
2026-02-05T09:57:34.378Z,-0.0063,-0.5502,-1.1685,0.0546,0.0898,0.0503,28.411250483333337,76.92673536666666,222.9000,5.3502
2026-02-05T09:57:34.388Z,-0.0735,-0.5379,0.3468,-0.0287,-0.0379,0.0245,28.411250483333337,76.92673536666666,222.9000,5.3502
2026-02-05T09:57:34.401Z,-1.2698,-0.6787,-1.9581,-0.0346,-0.2537,0.0362,28.411250483333337,76.92673536666666,222.9000,5.3502
2026-02-05T09:57:34.409Z,-1.2698,-0.6787,-1.9581,0.0366,-0.0375,0.0056,28.411250483333337,76.92673536666666,222.9000,5.3502
2026-02-05T09:57:34.419Z,1.5827,-1.0492,0.9387,-0.0139,0.0864,0.0089,28.411250483333337,76.92673536666666,222.9000,5.3502
2026-02-05T09:57:34.428Z,-0.3234,0.3200,-1.1895,-0.0219,-0.2431,0.0973,28.411250483333337,76.92673536666666,222.9000,5.3502
2026-02-05T09:57:34.438Z,-0.5352,-0.5501,0.2838,0.0553,0.1154,-0.0026,28.411250483333337,76.92673536666666,222.9000,5.3502
2026-02-05T09:57:34.450Z,0.8755,-0.3471,-0.0935,0.0321,-0.0698,0.0564,28.411250483333337,76.92673536666666,222.9000,5.3502
2026-02-05T09:57:34.458Z,0.0937,-0.6318,-1.6561,-0.0570,0.0009,0.0316,28.411250483333337,76.92673536666666,222.9000,5.3502
2026-02-05T09:57:34.468Z,1.0509,-0.8889,0.7377,0.1002,0.0406,0.0404,28.411250483333337,76.92673536666666,222.9000,5.3502
2026-02-05T09:57:34.479Z,1.1492,-1.0936,0.1026,0.0215,0.0924,0.0251,28.411250483333337,76.92673536666666,222.9000,5.3502
2026-02-05T09:57:34.488Z,1.1492,-1.0936,0.1026,0.0174,-0.1388,0.0504,28.411250483333337,76.92673536666666,222.9000,5.3502
2026-02-05T09:57:34.502Z,1.9769,-0.8327,0.7374,0.0655,0.2693,0.0358,28.411250483333337,76.92673536666666,222.9000,5.3502
2026-02-05T09:57:34.510Z,-0.5308,-0.2470,-0.3141,0.0276,-0.0223,0.0290,28.411250483333337,76.92673536666666,222.9000,5.3502
2026-02-05T09:57:34.518Z,-0.5535,-0.1240,-1.4029,0.0021,-0.0729,0.0279,28.411250483333337,76.92673536666666,222.9000,5.3502
2026-02-05T09:57:34.535Z,-0.5535,-0.1240,-1.4029,0.0792,0.1450,0.0322,28.411250483333337,76.92673536666666,222.9000,5.3502
2026-02-05T09:57:34.538Z,0.7080,0.1739,-0.2689,-0.0015,0.0359,0.0387,28.411250483333337,76.92673536666666,222.9000,5.3502
2026-02-05T09:57:34.548Z,-0.9330,-0.5242,-0.7927,-0.0078,0.0070,0.0115,28.411250483333337,76.92673536666666,222.9000,5.3502
2026-02-05T09:57:34.559Z,-0.1901,-1.8757,1.4406,0.1023,0.0062,0.0647,28.411250483333337,76.92673536666666,222.9000,5.3502
2026-02-05T09:57:34.568Z,0.4159,-0.7898,-1.0169,-0.0755,0.0251,0.0337,28.411250483333337,76.92673536666666,222.9000,5.3502
2026-02-05T09:57:34.579Z,0.9834,-0.5935,0.6298,0.0781,0.0487,0.0630,28.411250483333337,76.92673536666666,222.9000,5.3502
2026-02-05T09:57:34.589Z,-0.3219,-0.7554,2.2792,0.0197,0.1177,0.0082,28.411250483333337,76.92673536666666,222.9000,5.3502
2026-02-05T09:57:34.600Z,-0.8689,0.2934,-1.9158,-0.0662,-0.1653,0.0180,28.411250483333337,76.92673536666666,222.9000,5.3502
2026-02-05T09:57:34.609Z,0.0383,0.4977,1.0864,0.0831,0.1480,0.0337,28.411250483333337,76.92673536666666,222.9000,5.3502
2026-02-05T09:57:34.620Z,-0.0276,-1.0996,1.3717,0.0218,-0.0269,0.0264,28.411250483333337,76.92673536666666,222.9000,5.3502
2026-02-05T09:57:34.629Z,-0.0276,-1.0996,1.3717,-0.0959,-0.0015,0.0913,28.411250483333337,76.92673536666666,222.9000,5.3502
2026-02-05T09:57:34.638Z,-3.0691,-1.7802,1.4601,0.0481,0.0109,0.0327,28.411250483333337,76.92673536666666,222.9000,5.3502
2026-02-05T09:57:34.650Z,0.0948,0.3475,0.9986,-0.0199,-0.0908,0.0353,28.411250483333337,76.92673536666666,222.9000,5.3502
2026-02-05T09:57:34.658Z,-0.2375,0.1730,-0.6811,-0.0286,0.0527,0.0190,28.411250483333337,76.92673536666666,222.9000,5.3502
2026-02-05T09:57:34.668Z,0.6377,-0.8724,0.7444,-0.0037,-0.0141,0.0474,28.411250483333337,76.92673536666666,222.9000,5.3502
2026-02-05T09:57:34.679Z,-0.7590,-0.4330,-0.4190,0.0524,0.1173,0.0424,28.411250483333337,76.92673536666666,222.9000,5.3502
2026-02-05T09:57:34.688Z,-2.1884,-0.5158,-1.1136,-0.0170,-0.1908,0.0142,28.411250483333337,76.92673536666666,222.9000,5.3502
2026-02-05T09:57:34.699Z,0.5514,-0.5843,-0.2534,-0.0032,0.0049,0.0088,28.411250483333337,76.92673536666666,222.9000,5.3502
2026-02-05T09:57:34.708Z,0.4246,0.0988,1.0067,0.0164,-0.0181,0.0390,28.411250483333337,76.92673536666666,222.9000,5.3502
2026-02-05T09:57:34.719Z,-0.1442,-1.4868,0.6527,0.0191,0.0251,0.0272,28.411250483333337,76.92673536666666,222.9000,5.3502
2026-02-05T09:57:34.730Z,-0.5008,-2.0572,1.0362,-0.0084,-0.0482,0.0379,28.411250483333337,76.92673536666666,222.9000,5.3502
2026-02-05T09:57:34.739Z,-1.4373,0.3390,-0.1511,-0.0022,-0.0946,0.0255,28.411250483333337,76.92673536666666,222.9000,5.3502
2026-02-05T09:57:34.749Z,-0.7102,-0.0492,0.7652,0.0315,0.0933,-0.0297,28.411250483333337,76.92673536666666,222.9000,5.3502
2026-02-05T09:57:34.758Z,0.3786,-0.3006,-0.6689,-0.0274,-0.0902,0.0501,28.411250483333337,76.92673536666666,222.9000,5.3502
2026-02-05T09:57:34.768Z,-1.0441,-0.1516,-1.2521,-0.0063,-0.0853,0.0305,28.411250483333337,76.92673536666666,222.9000,5.3502
2026-02-05T09:57:34.779Z,1.7162,-1.4587,0.0822,-0.0090,0.1006,-0.0098,28.411250483333337,76.92673536666666,222.9000,5.3502
2026-02-05T09:57:34.789Z,-0.6396,-0.6425,0.8199,0.0066,-0.1002,0.0381,28.4112008,76.92674561666666,222.9000,5.4531
2026-02-05T09:57:34.799Z,-0.0690,-0.9647,-0.0964,-0.0154,0.0186,0.0176,28.4112008,76.92674561666666,222.9000,5.4531
2026-02-05T09:57:34.808Z,-0.9735,-1.2086,1.5887,0.0305,-0.1081,0.0030,28.4112008,76.92674561666666,222.9000,5.4531
2026-02-05T09:57:34.818Z,1.3284,0.3061,0.7062,0.0362,0.0674,0.0159,28.4112008,76.92674561666666,222.9000,5.4531
2026-02-05T09:57:34.829Z,-0.4885,-0.2717,-0.5127,0.0211,-0.0222,0.0399,28.4112008,76.92674561666666,222.9000,5.4531
2026-02-05T09:57:34.838Z,-0.9134,-0.8346,-0.2950,0.0040,-0.1228,0.0155,28.4112008,76.92674561666666,222.9000,5.4531
2026-02-05T09:57:34.849Z,-0.4834,-0.7245,-0.2035,-0.0488,-0.0382,-0.0151,28.4112008,76.92674561666666,222.9000,5.4531
2026-02-05T09:57:34.858Z,0.3074,-0.7745,-0.1950,0.0357,-0.0933,0.0336,28.4112008,76.92674561666666,222.9000,5.4531
2026-02-05T09:57:34.868Z,0.6915,-0.5851,0.0437,0.0300,0.0703,0.0149,28.4112008,76.92674561666666,222.9000,5.4531
2026-02-05T09:57:34.878Z,-0.1587,0.7043,-0.8455,0.0229,-0.0840,0.0580,28.4112008,76.92674561666666,222.9000,5.4531
2026-02-05T09:57:34.888Z,-1.3724,-0.1021,-0.4610,0.0501,0.0088,0.0210,28.4112008,76.92674561666666,222.9000,5.4531
2026-02-05T09:57:34.902Z,0.1347,-2.0098,-1.3059,-0.0377,-0.1064,-0.0004,28.4112008,76.92674561666666,222.9000,5.4531
2026-02-05T09:57:34.909Z,0.6083,0.3041,-1.4932,-0.0432,-0.0656,0.0345,28.4112008,76.92674561666666,222.9000,5.4531
2026-02-05T09:57:34.919Z,0.6814,-0.8923,2.2398,0.1017,0.1854,0.0371,28.4112008,76.92674561666666,222.9000,5.4531
2026-02-05T09:57:34.929Z,0.1957,-0.7110,-0.1430,-0.0241,-0.1459,0.0465,28.4112008,76.92674561666666,222.9000,5.4531
2026-02-05T09:57:34.938Z,0.0417,0.8204,-1.0663,0.0121,0.0665,0.0159,28.4112008,76.92674561666666,222.9000,5.4531
2026-02-05T09:57:34.949Z,-0.0062,-1.3103,1.4874,0.1040,0.0385,0.0245,28.4112008,76.92674561666666,222.9000,5.4531
2026-02-05T09:57:34.958Z,0.2276,-1.1327,-2.5167,-0.0867,-0.0093,0.0154,28.4112008,76.92674561666666,222.9000,5.4531
2026-02-05T09:57:34.969Z,-0.3060,0.6929,-2.7894,-0.0593,-0.1634,0.0295,28.4112008,76.92674561666666,222.9000,5.4531
2026-02-05T09:57:34.978Z,-0.2987,0.1119,2.7565,0.1752,0.1314,0.0541,28.4112008,76.92674561666666,222.9000,5.4531
2026-02-05T09:57:34.989Z,1.6207,0.1472,-1.7885,-0.0713,0.0874,-0.0068,28.4112008,76.92674561666666,222.9000,5.4531
2026-02-05T09:57:35.000Z,-1.4891,-0.6314,-3.2887,-0.0049,-0.2279,0.0324,28.4112008,76.92674561666666,222.9000,5.4531
2026-02-05T09:57:35.010Z,-0.9773,-2.1432,1.9282,0.0123,0.1053,0.0054,28.4112008,76.92674561666666,222.9000,5.4531
2026-02-05T09:57:35.018Z,0.4819,0.1495,-0.3912,-0.0480,-0.0309,0.0499,28.4112008,76.92674561666666,222.9000,5.4531
2026-02-05T09:57:35.029Z,-0.0963,0.0311,-0.6648,-0.0234,0.0123,0.0274,28.4112008,76.92674561666666,222.9000,5.4531
2026-02-05T09:57:35.039Z,0.8464,-0.6993,1.0995,-0.0135,0.0346,0.0116,28.4112008,76.92674561666666,222.9000,5.4531
2026-02-05T09:57:35.049Z,-0.7171,-0.0165,0.1201,-0.0197,0.0094,0.0154,28.4112008,76.92674561666666,222.9000,5.4531
2026-02-05T09:57:35.058Z,-0.8294,-0.7355,-1.3463,-0.0702,-0.0531,0.0139,28.4112008,76.92674561666666,222.9000,5.4531
2026-02-05T09:57:35.068Z,0.0555,-0.2298,-0.2820,-0.0179,-0.0569,-0.0080,28.4112008,76.92674561666666,222.9000,5.4531
2026-02-05T09:57:35.078Z,1.8947,-0.3254,-0.1412,-0.0357,0.1336,-0.0089,28.4112008,76.92674561666666,222.9000,5.4531
2026-02-05T09:57:35.088Z,-1.3225,-0.6479,-0.0916,-0.0418,-0.0426,0.0558,28.4112008,76.92674561666666,222.9000,5.4531
2026-02-05T09:57:35.099Z,-1.2452,0.2092,0.3678,-0.0612,-0.0383,-0.0010,28.4112008,76.92674561666666,222.9000,5.4531
2026-02-05T09:57:35.108Z,-0.8515,0.2354,-0.2693,-0.0628,-0.0686,-0.0219,28.4112008,76.92674561666666,222.9000,5.4531
2026-02-05T09:57:35.118Z,0.4245,-1.2104,-0.1041,-0.0476,-0.0396,0.0225,28.4112008,76.92674561666666,222.9000,5.4531
2026-02-05T09:57:35.129Z,1.4781,-1.1611,1.1424,-0.0233,0.1908,0.0455,28.4112008,76.92674561666666,222.9000,5.4531
2026-02-05T09:57:35.138Z,-2.0126,0.5904,-0.0866,-0.0464,-0.1378,0.0144,28.4112008,76.92674561666666,222.9000,5.4531
2026-02-05T09:57:35.149Z,-1.3347,0.6712,0.0092,-0.0347,-0.0453,-0.0711,28.4112008,76.92674561666666,222.9000,5.4531
2026-02-05T09:57:35.158Z,1.3960,-0.2575,1.0096,-0.0147,-0.0195,0.0149,28.4112008,76.92674561666666,222.9000,5.4531
2026-02-05T09:57:35.168Z,0.5851,-1.2024,0.4888,-0.0338,0.0675,0.0160,28.4112008,76.92674561666666,222.9000,5.4531
2026-02-05T09:57:35.178Z,1.4601,-0.5129,0.5528,-0.0422,-0.0204,0.0521,28.4112008,76.92674561666666,222.9000,5.4531
2026-02-05T09:57:35.188Z,-1.9413,0.0639,1.5232,-0.0445,-0.0793,-0.0087,28.4112008,76.92674561666666,222.9000,5.4531
2026-02-05T09:57:35.199Z,0.0185,1.3283,0.2539,-0.0533,-0.0457,-0.0286,28.4112008,76.92674561666666,222.9000,5.4531
2026-02-05T09:57:35.208Z,0.0082,0.4363,2.1191,0.0580,0.0469,0.0550,28.4112008,76.92674561666666,222.9000,5.4531
2026-02-05T09:57:35.218Z,0.1969,-1.1179,0.1828,-0.0246,0.0199,0.0217,28.4112008,76.92674561666666,222.9000,5.4531
2026-02-05T09:57:35.229Z,0.6846,-1.8426,-1.8829,-0.0521,-0.0240,0.0420,28.4112008,76.92674561666666,222.9000,5.4531
2026-02-05T09:57:35.238Z,-2.6810,-0.2142,1.8862,0.0040,-0.0758,-0.0101,28.4112008,76.92674561666666,222.9000,5.4531
2026-02-05T09:57:35.250Z,2.3586,0.4882,1.6384,0.0069,0.0686,0.0380,28.4112008,76.92674561666666,222.9000,5.4531
2026-02-05T09:57:35.258Z,0.6856,0.4531,0.7442,-0.0128,0.0974,0.0391,28.4112008,76.92674561666666,222.9000,5.4531
2026-02-05T09:57:35.268Z,1.5751,0.1821,0.3549,0.0191,0.0311,0.0183,28.4112008,76.92674561666666,222.9000,5.4531
2026-02-05T09:57:35.278Z,-1.1878,-1.5444,1.3311,-0.0024,0.0963,-0.0059,28.4112008,76.92674561666666,222.9000,5.4531
2026-02-05T09:57:35.288Z,-1.8302,0.4345,-0.9502,-0.0663,-0.1574,0.0020,28.4112008,76.92674561666666,222.9000,5.4531
2026-02-05T09:57:35.300Z,0.0645,0.1580,0.2512,0.0115,0.0659,0.0033,28.4112008,76.92674561666666,222.9000,5.4531
2026-02-05T09:57:35.308Z,0.5829,-0.9846,2.8180,0.0771,0.0011,0.0500,28.4112008,76.92674561666666,222.9000,5.4531
2026-02-05T09:57:35.319Z,0.3401,-1.0173,-0.7544,-0.0732,0.0832,-0.0043,28.4112008,76.92674561666666,222.9000,5.4531
2026-02-05T09:57:35.329Z,-0.2890,-0.0252,-0.1898,0.0348,-0.0356,0.0355,28.4112008,76.92674561666666,222.9000,5.4531
2026-02-05T09:57:35.338Z,-0.4190,0.7462,1.1004,0.0511,0.0658,-0.0108,28.4112008,76.92674561666666,222.9000,5.4531
2026-02-05T09:57:35.349Z,1.1867,0.5233,-1.8059,-0.0114,-0.0334,0.0345,28.4112008,76.92674561666666,222.9000,5.4531
2026-02-05T09:57:35.358Z,0.1484,-1.3269,-0.9676,0.0028,0.1132,-0.0034,28.4112008,76.92674561666666,222.9000,5.4531
2026-02-05T09:57:35.368Z,0.2134,-0.6972,-0.2526,0.0143,-0.0772,0.0221,28.4112008,76.92674561666666,222.9000,5.4531
2026-02-05T09:57:35.378Z,-0.8038,-0.1015,-0.1479,-0.0155,0.1091,-0.0288,28.4112008,76.92674561666666,222.9000,5.4531
2026-02-05T09:57:35.389Z,0.2452,0.2908,0.3955,0.0229,-0.0814,0.0445,28.4112008,76.92674561666666,222.9000,5.4531
2026-02-05T09:57:35.399Z,-0.1249,0.0751,1.7765,0.0881,0.1297,0.0136,28.4112008,76.92674561666666,222.9000,5.4531
2026-02-05T09:57:35.408Z,0.9923,-0.6725,-0.5956,0.0422,0.0558,0.0010,28.4112008,76.92674561666666,222.9000,5.4531
2026-02-05T09:57:35.419Z,-1.3608,-0.0220,-1.0492,0.0294,-0.0486,0.0340,28.4112008,76.92674561666666,222.9000,5.4531
2026-02-05T09:57:35.428Z,-0.2502,0.1405,-0.5018,0.0126,0.0511,-0.0154,28.4112008,76.92674561666666,222.9000,5.4531
2026-02-05T09:57:35.438Z,0.2257,0.6428,-1.0326,0.0185,-0.0557,0.0312,28.4112008,76.92674561666666,222.9000,5.4531
2026-02-05T09:57:35.448Z,-0.5932,-0.7489,-0.6590,0.0568,0.1021,-0.0212,28.4112008,76.92674561666666,222.9000,5.4531
2026-02-05T09:57:35.459Z,0.4268,-0.5871,-0.9926,0.0223,-0.1118,0.0331,28.4112008,76.92674561666666,222.9000,5.4531
2026-02-05T09:57:35.469Z,-0.5319,-0.1545,-0.1198,0.0566,0.0907,0.0125,28.4112008,76.92674561666666,222.9000,5.4531
2026-02-05T09:57:35.478Z,0.5295,-0.1858,0.3382,0.1003,-0.0338,0.0324,28.4112008,76.92674561666666,222.9000,5.4531
2026-02-05T09:57:35.488Z,-0.0514,0.0522,-0.9051,0.0058,0.0964,-0.0006,28.4112008,76.92674561666666,222.9000,5.4531
2026-02-05T09:57:35.500Z,-1.5741,0.0807,-0.3159,0.0581,-0.0894,0.0127,28.4112008,76.92674561666666,222.9000,5.4531
2026-02-05T09:57:35.509Z,-0.8804,-0.0464,-0.2096,0.0327,-0.0377,-0.0472,28.4112008,76.92674561666666,222.9000,5.4531
2026-02-05T09:57:35.518Z,1.5747,-0.0168,-1.1426,0.0398,0.0059,0.0370,28.4112008,76.92674561666666,222.9000,5.4531
2026-02-05T09:57:35.529Z,0.3119,-0.0877,0.4105,0.0644,0.1005,0.0418,28.4112008,76.92674561666666,222.9000,5.4531
2026-02-05T09:57:35.538Z,-0.8171,-0.2425,-0.2988,0.0549,-0.0358,0.0094,28.4112008,76.92674561666666,222.9000,5.4531
2026-02-05T09:57:35.549Z,-1.1748,-0.7513,-0.7600,-0.0172,-0.1158,-0.0117,28.4112008,76.92674561666666,222.9000,5.4531
2026-02-05T09:57:35.558Z,0.1547,0.0714,0.1312,0.0424,-0.0222,-0.0029,28.4112008,76.92674561666666,222.9000,5.4531
2026-02-05T09:57:35.568Z,0.6950,-0.3016,0.3366,0.0507,0.1477,0.0050,28.4112008,76.92674561666666,222.9000,5.4531
2026-02-05T09:57:35.578Z,-1.2060,0.3796,-0.2855,0.0097,-0.1335,0.0114,28.4112008,76.92674561666666,222.9000,5.4531
2026-02-05T09:57:35.593Z,-0.1500,0.2980,0.5259,0.0314,-0.0594,0.0117,28.4112008,76.92674561666666,222.9000,5.4531
2026-02-05T09:57:35.598Z,0.0157,0.3702,0.5607,0.0477,0.0721,-0.0040,28.4112008,76.92674561666666,222.9000,5.4531
2026-02-05T09:57:35.608Z,-0.2003,-0.4492,-0.1765,0.0155,-0.0860,0.0034,28.4112008,76.92674561666666,222.9000,5.4531
2026-02-05T09:57:35.618Z,0.1807,-0.5062,0.7090,-0.0071,0.0404,-0.0094,28.4112008,76.92674561666666,222.9000,5.4531
2026-02-05T09:57:35.628Z,-0.5133,-0.1010,0.1572,-0.0084,-0.0263,-0.0040,28.4112008,76.92674561666666,222.9000,5.4531
2026-02-05T09:57:35.639Z,-0.0185,0.2752,0.1487,0.0000,-0.0324,-0.0052,28.4112008,76.92674561666666,222.9000,5.4531
2026-02-05T09:57:35.648Z,-0.2197,0.3193,0.7499,0.0189,0.0416,0.0004,28.4112008,76.92674561666666,222.9000,5.4531
2026-02-05T09:57:35.658Z,0.5989,-0.3510,0.0600,-0.0264,-0.0714,0.0116,28.4112008,76.92674561666666,222.9000,5.4531
2026-02-05T09:57:35.668Z,0.4080,0.8030,0.0355,0.0090,0.0441,0.0268,28.4112008,76.92674561666666,222.9000,5.4531
2026-02-05T09:57:35.678Z,-0.5038,-0.4787,0.4465,-0.0389,0.0046,-0.0188,28.4112008,76.92674561666666,222.9000,5.4531
2026-02-05T09:57:35.688Z,-0.2173,0.2848,-0.1293,-0.0171,-0.0778,-0.0087,28.4112008,76.92674561666666,222.9000,5.4531
2026-02-05T09:57:35.699Z,0.3824,0.1349,0.9616,-0.0008,0.0520,0.0037,28.4112008,76.92674561666666,222.9000,5.4531
2026-02-05T09:57:35.708Z,0.4429,-0.8259,0.7438,-0.0351,-0.0010,0.0196,28.4112008,76.92674561666666,222.9000,5.4531
2026-02-05T09:57:35.718Z,-0.2415,1.4470,-0.2265,-0.0292,-0.0355,0.0219,28.4112008,76.92674561666666,222.9000,5.4531
2026-02-05T09:57:35.728Z,-1.3155,0.5836,-0.3875,-0.0240,-0.0311,-0.0215,28.4112008,76.92674561666666,222.9000,5.4531
2026-02-05T09:57:35.738Z,1.3177,-0.4157,-0.8994,-0.0352,-0.0793,0.0047,28.4112008,76.92674561666666,222.9000,5.4531
2026-02-05T09:57:35.748Z,1.8302,-0.1309,-0.1110,-0.0441,0.1499,0.0373,28.4112008,76.92674561666666,222.9000,5.4531
2026-02-05T09:57:35.759Z,-1.2454,0.4907,0.7693,0.0187,-0.0427,0.0251,28.4112008,76.92674561666666,222.9000,5.4531
2026-02-05T09:57:35.768Z,-0.7298,-0.9685,0.0260,-0.0728,-0.0331,-0.0275,28.4112008,76.92674561666666,222.9000,5.4531
2026-02-05T09:57:35.779Z,-0.2569,0.1325,-0.6028,-0.0769,-0.1122,0.0277,28.411152,76.92675808333333,223.0000,5.4531
2026-02-05T09:57:35.788Z,-0.2569,0.1325,-0.6028,0.0625,0.1282,0.0471,28.411152,76.92675808333333,223.0000,5.4531
2026-02-05T09:57:35.798Z,0.8650,0.6617,-0.3969,-0.0361,0.0493,0.0449,28.411152,76.92675808333333,223.0000,5.4531
2026-02-05T09:57:35.808Z,-3.0360,0.9857,-2.0783,-0.0240,-0.1483,0.0168,28.411152,76.92675808333333,223.0000,5.4531
2026-02-05T09:57:35.818Z,-0.0212,-0.4963,0.3923,-0.0650,0.0529,-0.0472,28.411152,76.92675808333333,223.0000,5.4531
2026-02-05T09:57:35.828Z,0.9693,-0.2268,0.2370,-0.0172,-0.0771,0.0746,28.411152,76.92675808333333,223.0000,5.4531
2026-02-05T09:57:35.838Z,0.8907,-1.5518,-0.8475,-0.0756,0.1546,0.0025,28.411152,76.92675808333333,223.0000,5.4531
2026-02-05T09:57:35.848Z,0.7280,-0.5850,-0.5194,-0.0761,-0.1440,0.0031,28.411152,76.92675808333333,223.0000,5.4531
2026-02-05T09:57:35.858Z,-0.7416,-0.3915,2.2303,0.0376,0.1358,-0.0239,28.411152,76.92675808333333,223.0000,5.4531
2026-02-05T09:57:35.869Z,0.0697,0.2813,0.1171,-0.0400,-0.0333,0.0449,28.411152,76.92675808333333,223.0000,5.4531
2026-02-05T09:57:35.878Z,-0.8452,2.2304,-1.2426,-0.0562,-0.0028,-0.0071,28.411152,76.92675808333333,223.0000,5.4531
2026-02-05T09:57:35.888Z,1.8744,0.6347,0.8566,0.0499,0.2279,0.0527,28.411152,76.92675808333333,223.0000,5.4531
2026-02-05T09:57:35.898Z,-2.4875,-0.0711,-1.4961,-0.0881,-0.1542,0.0074,28.411152,76.92675808333333,223.0000,5.4531
2026-02-05T09:57:35.908Z,1.6981,-0.2231,-2.6505,-0.0606,0.0816,0.0229,28.411152,76.92675808333333,223.0000,5.4531
2026-02-05T09:57:35.919Z,-0.1398,-1.7141,2.8292,0.0429,0.0960,0.0242,28.411152,76.92675808333333,223.0000,5.4531
2026-02-05T09:57:35.928Z,0.8512,-0.4584,-0.3370,-0.0937,0.0740,-0.0045,28.411152,76.92675808333333,223.0000,5.4531
2026-02-05T09:57:35.938Z,0.2936,-1.2020,-0.1894,-0.0750,0.1199,0.0419,28.411152,76.92675808333333,223.0000,5.4531
2026-02-05T09:57:35.949Z,-1.7436,1.2042,2.5877,0.0497,-0.1321,0.0457,28.411152,76.92675808333333,223.0000,5.4531
2026-02-05T09:57:35.958Z,0.8693,-0.8121,-1.4185,-0.0328,0.2477,-0.1048,28.411152,76.92675808333333,223.0000,5.4531
2026-02-05T09:57:35.968Z,-0.2905,1.6360,-0.8033,-0.0176,-0.2097,0.0919,28.411152,76.92675808333333,223.0000,5.4531
2026-02-05T09:57:35.978Z,-1.3680,0.2672,2.0876,-0.0016,0.2599,-0.0001,28.411152,76.92675808333333,223.0000,5.4531
2026-02-05T09:57:35.988Z,1.0263,0.4315,-1.2835,-0.0539,-0.1195,0.0032,28.411152,76.92675808333333,223.0000,5.4531
2026-02-05T09:57:35.998Z,0.2042,-0.0464,-0.6969,-0.0017,0.0674,0.0526,28.411152,76.92675808333333,223.0000,5.4531
2026-02-05T09:57:36.008Z,0.1382,-2.3024,2.1706,0.0134,0.1342,0.0109,28.411152,76.92675808333333,223.0000,5.4531
2026-02-05T09:57:36.018Z,0.0949,-0.0632,-1.3521,-0.0396,-0.1187,0.0394,28.411152,76.92675808333333,223.0000,5.4531
2026-02-05T09:57:36.028Z,-1.5306,-0.9462,1.0557,-0.0310,0.1125,-0.0051,28.411152,76.92675808333333,223.0000,5.4531
2026-02-05T09:57:36.038Z,0.8202,0.3627,2.3449,0.0308,-0.0529,0.0512,28.411152,76.92675808333333,223.0000,5.4531
2026-02-05T09:57:36.048Z,0.7849,0.3489,0.1348,0.0073,0.2262,0.0255,28.411152,76.92675808333333,223.0000,5.4531
2026-02-05T09:57:36.058Z,-1.9460,0.8008,-0.2611,-0.0011,-0.0344,0.0478,28.411152,76.92675808333333,223.0000,5.4531
2026-02-05T09:57:36.068Z,-1.6380,0.6763,-0.6783,-0.0237,-0.0481,-0.0096,28.411152,76.92675808333333,223.0000,5.4531
2026-02-05T09:57:36.078Z,0.6927,-0.7383,-0.5882,0.0189,0.0317,-0.0207,28.411152,76.92675808333333,223.0000,5.4531
2026-02-05T09:57:36.088Z,1.2936,-0.8879,-0.0350,-0.0309,0.0544,0.0757,28.411152,76.92675808333333,223.0000,5.4531
2026-02-05T09:57:36.098Z,-1.4363,-0.1145,1.2162,0.0142,0.0677,0.0055,28.411152,76.92675808333333,223.0000,5.4531
2026-02-05T09:57:36.108Z,-0.7375,0.0222,0.7140,-0.0120,-0.1120,0.0245,28.411152,76.92675808333333,223.0000,5.4531
2026-02-05T09:57:36.118Z,-1.1453,-0.6275,0.9826,-0.0279,-0.0124,0.0065,28.411152,76.92675808333333,223.0000,5.4531
2026-02-05T09:57:36.128Z,1.8468,-0.0864,1.3080,0.0750,0.0402,0.0363,28.411152,76.92675808333333,223.0000,5.4531
2026-02-05T09:57:36.138Z,-1.0495,0.0621,0.6899,0.0091,0.0309,0.0291,28.411152,76.92675808333333,223.0000,5.4531
2026-02-05T09:57:36.148Z,-2.3229,-0.1149,-0.9103,-0.0021,-0.1827,0.0210,28.411152,76.92675808333333,223.0000,5.4531
2026-02-05T09:57:36.159Z,-0.2930,0.7308,-0.2287,0.0204,-0.0414,0.0304,28.411152,76.92675808333333,223.0000,5.4531
2026-02-05T09:57:36.168Z,0.4139,0.2134,0.4605,0.0452,0.0016,0.0314,28.411152,76.92675808333333,223.0000,5.4531
2026-02-05T09:57:36.178Z,0.6149,-0.7064,-0.9004,0.0367,-0.0131,0.0473,28.411152,76.92675808333333,223.0000,5.4531
2026-02-05T09:57:36.188Z,-2.0482,0.0516,-1.5033,-0.0235,-0.0871,-0.0109,28.411152,76.92675808333333,223.0000,5.4531
2026-02-05T09:57:36.199Z,-1.4905,-0.2247,0.5510,0.0356,-0.0812,-0.0213,28.411152,76.92675808333333,223.0000,5.4531
2026-02-05T09:57:36.208Z,0.7268,0.5169,0.6445,-0.0199,-0.1120,0.0189,28.411152,76.92675808333333,223.0000,5.4531
2026-02-05T09:57:36.218Z,1.0446,0.5291,-0.3967,0.0699,0.0687,0.0353,28.411152,76.92675808333333,223.0000,5.4531
2026-02-05T09:57:36.228Z,0.0482,-0.0083,0.9595,0.0454,-0.0366,0.0379,28.411152,76.92675808333333,223.0000,5.4531
2026-02-05T09:57:36.238Z,-2.9460,0.1988,-0.5081,0.0212,-0.2201,0.0038,28.411152,76.92675808333333,223.0000,5.4531
2026-02-05T09:57:36.248Z,-0.8908,-0.6630,-1.1494,-0.0131,-0.0554,-0.0457,28.411152,76.92675808333333,223.0000,5.4531
2026-02-05T09:57:36.258Z,0.5243,0.0184,-0.1988,0.0547,-0.1181,0.0733,28.411152,76.92675808333333,223.0000,5.4531
2026-02-05T09:57:36.268Z,-0.4093,0.4714,-0.3548,-0.0086,0.0556,-0.0426,28.411152,76.92675808333333,223.0000,5.4531
2026-02-05T09:57:36.278Z,-0.7266,-0.4657,-1.6774,-0.0108,-0.2983,-0.0286,28.411152,76.92675808333333,223.0000,5.4531
2026-02-05T09:57:36.288Z,-2.2002,-1.1503,0.6954,0.0289,-0.1174,-0.0627,28.411152,76.92675808333333,223.0000,5.4531
2026-02-05T09:57:36.297Z,2.7602,-0.0722,0.2475,-0.0292,-0.1310,0.0533,28.411152,76.92675808333333,223.0000,5.4531
2026-02-05T09:57:36.308Z,0.2991,2.3655,0.7700,0.0207,0.0289,0.0552,28.411152,76.92675808333333,223.0000,5.4531
2026-02-05T09:57:36.318Z,-0.0524,0.6174,0.9783,0.0995,-0.0447,0.0398,28.411152,76.92675808333333,223.0000,5.4531
2026-02-05T09:57:36.331Z,0.1763,-0.6640,-2.7592,-0.0294,0.0075,-0.0098,28.411152,76.92675808333333,223.0000,5.4531
2026-02-05T09:57:36.338Z,-0.5424,0.6526,-2.1828,0.0031,-0.1488,-0.0251,28.411152,76.92675808333333,223.0000,5.4531
2026-02-05T09:57:36.348Z,0.2155,-2.2045,1.2048,0.1021,0.0760,-0.0304,28.411152,76.92675808333333,223.0000,5.4531
2026-02-05T09:57:36.358Z,1.2782,-0.0334,-2.6466,-0.1488,-0.1466,0.0135,28.411152,76.92675808333333,223.0000,5.4531
2026-02-05T09:57:36.368Z,1.6041,2.5292,-0.1676,0.0285,-0.0009,0.0617,28.411152,76.92675808333333,223.0000,5.4531
2026-02-05T09:57:36.381Z,2.2067,-0.1565,4.3370,0.0133,0.3697,0.0092,28.411152,76.92675808333333,223.0000,5.4531
2026-02-05T09:57:36.388Z,-2.1249,1.9030,-3.7139,-0.0206,-0.2376,0.0670,28.411152,76.92675808333333,223.0000,5.4531
2026-02-05T09:57:36.398Z,-1.2993,-1.5637,-0.9905,0.0248,-0.0042,-0.0860,28.411152,76.92675808333333,223.0000,5.4531
2026-02-05T09:57:36.408Z,1.9468,-0.0977,1.5104,-0.0153,0.0752,0.0624,28.411152,76.92675808333333,223.0000,5.4531
2026-02-05T09:57:36.418Z,1.5409,0.4365,-1.3825,-0.0891,0.1093,0.0443,28.411152,76.92675808333333,223.0000,5.4531
2026-02-05T09:57:36.431Z,1.5292,0.5073,-0.8985,-0.0346,0.0411,0.0972,28.411152,76.92675808333333,223.0000,5.4531
2026-02-05T09:57:36.438Z,-3.1041,0.6564,1.7313,0.0319,0.0239,-0.0102,28.411152,76.92675808333333,223.0000,5.4531
2026-02-05T09:57:36.448Z,1.6451,-1.5717,-1.2947,-0.1251,0.0125,-0.0925,28.411152,76.92675808333333,223.0000,5.4531
2026-02-05T09:57:36.459Z,1.8450,-0.2263,-1.4223,-0.1315,-0.0649,0.0847,28.411152,76.92675808333333,223.0000,5.4531
2026-02-05T09:57:36.468Z,1.8759,0.9617,2.8459,0.1204,0.4203,0.0023,28.411152,76.92675808333333,223.0000,5.4531
2026-02-05T09:57:36.480Z,0.2152,0.9564,-0.1136,-0.0808,-0.1330,0.0890,28.411152,76.92675808333333,223.0000,5.4531
2026-02-05T09:57:36.488Z,-2.5958,0.0363,-0.9304,-0.1283,0.0224,-0.0322,28.411152,76.92675808333333,223.0000,5.4531
2026-02-05T09:57:36.499Z,1.1064,-1.6237,1.1964,-0.0785,0.1118,0.0429,28.411152,76.92675808333333,223.0000,5.4531
2026-02-05T09:57:36.508Z,0.7391,-0.0897,-0.5715,-0.1002,0.0694,0.0157,28.411152,76.92675808333333,223.0000,5.4531
2026-02-05T09:57:36.518Z,1.4439,0.9533,1.2681,0.0241,0.1291,0.0513,28.411152,76.92675808333333,223.0000,5.4531
2026-02-05T09:57:36.530Z,-1.5811,0.7747,0.2961,-0.1340,0.0342,0.0219,28.411152,76.92675808333333,223.0000,5.4531
2026-02-05T09:57:36.538Z,-2.3362,-0.1416,-0.7532,-0.0884,-0.1068,-0.0170,28.411152,76.92675808333333,223.0000,5.4531
2026-02-05T09:57:36.548Z,2.1384,-2.0339,1.4533,-0.0262,0.2437,0.0210,28.411152,76.92675808333333,223.0000,5.4531
2026-02-05T09:57:36.559Z,-0.4831,0.3452,0.2962,-0.0628,-0.0391,0.0410,28.411152,76.92675808333333,223.0000,5.4531
2026-02-05T09:57:36.568Z,-0.0470,0.7741,0.9979,-0.0457,0.0838,0.0188,28.411152,76.92675808333333,223.0000,5.4531
2026-02-05T09:57:36.580Z,-1.7232,-0.0275,2.0256,-0.0423,0.0169,-0.0136,28.411152,76.92675808333333,223.0000,5.4531
2026-02-05T09:57:36.588Z,0.0202,-0.6489,-0.2846,-0.0636,-0.0689,-0.0191,28.411152,76.92675808333333,223.0000,5.4531
2026-02-05T09:57:36.598Z,1.8937,-0.6164,-0.2113,-0.0843,0.1596,0.0150,28.411152,76.92675808333333,223.0000,5.4531
2026-02-05T09:57:36.609Z,-1.4561,1.3678,0.8984,-0.0023,-0.0715,0.0678,28.411152,76.92675808333333,223.0000,5.4531
2026-02-05T09:57:36.619Z,-1.8316,-0.0696,0.0524,-0.0800,0.0348,-0.0616,28.411152,76.92675808333333,223.0000,5.4531
2026-02-05T09:57:36.630Z,-0.9493,0.3627,-0.1060,-0.0496,-0.1859,0.0084,28.411152,76.92675808333333,223.0000,5.4531
2026-02-05T09:57:36.638Z,1.3624,-1.5033,1.3591,0.0382,0.1945,-0.0182,28.411152,76.92675808333333,223.0000,5.4531
2026-02-05T09:57:36.648Z,0.9931,-0.9444,-0.3117,-0.0011,-0.0232,0.0130,28.411152,76.92675808333333,223.0000,5.4531
2026-02-05T09:57:36.659Z,-1.5463,0.3520,-0.9282,-0.0544,-0.0458,-0.0004,28.411152,76.92675808333333,223.0000,5.4531
2026-02-05T09:57:36.668Z,-1.6481,-0.1357,1.1709,-0.0007,-0.0831,-0.0473,28.411152,76.92675808333333,223.0000,5.4531
2026-02-05T09:57:36.679Z,1.5329,0.3245,-0.6547,-0.0294,-0.0915,-0.0041,28.411152,76.92675808333333,223.0000,5.4531
2026-02-05T09:57:36.688Z,0.7765,-0.2869,0.4119,0.0352,0.1469,0.0340,28.411152,76.92675808333333,223.0000,5.4531
2026-02-05T09:57:36.698Z,-1.0570,-0.6101,0.1765,-0.0162,-0.0947,0.0324,28.411152,76.92675808333333,223.0000,5.4531
2026-02-05T09:57:36.708Z,-2.9190,-0.7775,-0.0773,0.0108,-0.1455,-0.0689,28.411152,76.92675808333333,223.0000,5.4531
2026-02-05T09:57:36.719Z,-0.4944,-1.4367,0.5340,-0.0618,-0.0089,-0.0504,28.411152,76.92675808333333,223.0000,5.4531
2026-02-05T09:57:36.730Z,1.1799,-0.8073,0.4868,0.0523,-0.0710,0.0436,28.411152,76.92675808333333,223.0000,5.4531
2026-02-05T09:57:36.738Z,1.4503,-0.8276,1.4685,0.0240,0.1617,0.0175,28.411152,76.92675808333333,223.0000,5.4531
2026-02-05T09:57:36.748Z,-1.8509,0.5013,-0.1546,0.0058,-0.0923,-0.0237,28.411152,76.92675808333333,223.0000,5.4531
2026-02-05T09:57:36.759Z,-1.1126,-0.1857,-0.3509,-0.0317,-0.1434,-0.0738,28.411152,76.92675808333333,223.0000,5.4531
2026-02-05T09:57:36.768Z,0.8279,-0.5137,-0.6514,0.0213,-0.0373,-0.0770,28.411152,76.92675808333333,223.0000,5.4531
2026-02-05T09:57:36.780Z,2.2257,-1.3036,0.7417,0.0553,0.0823,0.0457,28.411152,76.92675808333333,223.0000,5.4531
2026-02-05T09:57:36.788Z,1.1446,-0.2326,-0.6063,-0.0502,0.0205,0.0516,28.411152,76.92675808333333,223.0000,5.4531
2026-02-05T09:57:36.798Z,-2.8022,-0.9638,0.2222,0.0694,-0.0270,-0.0667,28.411101700000003,76.9267716,223.1000,5.7103
2026-02-05T09:57:36.807Z,-0.2173,-0.9756,0.1724,0.0233,-0.0478,-0.0258,28.411101700000003,76.9267716,223.1000,5.7103
2026-02-05T09:57:36.818Z,0.4194,-0.8559,-0.1517,0.0733,0.0359,-0.0620,28.411101700000003,76.9267716,223.1000,5.7103
2026-02-05T09:57:36.829Z,3.3572,-2.0497,-0.3794,0.0166,0.1602,0.0200,28.411101700000003,76.9267716,223.1000,5.7103
2026-02-05T09:57:36.838Z,-0.9523,1.0892,-0.6854,0.0937,-0.0363,-0.0075,28.411101700000003,76.9267716,223.1000,5.7103
2026-02-05T09:57:36.848Z,-0.2621,-0.1784,0.2524,0.0554,0.0249,-0.0731,28.411101700000003,76.9267716,223.1000,5.7103
2026-02-05T09:57:36.858Z,-0.7467,1.0074,-1.9564,0.0470,-0.1888,0.0331,28.411101700000003,76.9267716,223.1000,5.7103
2026-02-05T09:57:36.869Z,1.0294,-1.7040,-0.1192,0.1099,0.1474,-0.0295,28.411101700000003,76.9267716,223.1000,5.7103
2026-02-05T09:57:36.879Z,1.8731,-2.5988,-0.3905,0.0164,-0.0491,0.0599,28.411101700000003,76.9267716,223.1000,5.7103
2026-02-05T09:57:36.888Z,-2.0854,-1.6291,0.2445,0.0572,0.0005,0.0024,28.411101700000003,76.9267716,223.1000,5.7103
2026-02-05T09:57:36.898Z,-0.0895,-0.4457,0.5969,0.0297,-0.0047,-0.0516,28.411101700000003,76.9267716,223.1000,5.7103
2026-02-05T09:57:36.908Z,-0.2893,0.9003,0.1643,0.0578,-0.1172,0.0152,28.411101700000003,76.9267716,223.1000,5.7103
2026-02-05T09:57:36.918Z,2.1890,-1.3709,0.8367,0.0827,0.2471,-0.0599,28.411101700000003,76.9267716,223.1000,5.7103
2026-02-05T09:57:36.930Z,1.1245,-1.4704,-1.1589,0.0428,-0.1068,0.0662,28.411101700000003,76.9267716,223.1000,5.7103
2026-02-05T09:57:36.938Z,-1.4952,-0.5321,-0.1623,0.0592,0.1466,-0.0481,28.411101700000003,76.9267716,223.1000,5.7103
2026-02-05T09:57:36.948Z,0.3261,-0.2529,0.3616,0.0366,-0.0601,0.0202,28.411101700000003,76.9267716,223.1000,5.7103
2026-02-05T09:57:36.959Z,-1.0330,-0.4536,-0.7101,-0.0609,0.0234,-0.0203,28.411101700000003,76.9267716,223.1000,5.7103
2026-02-05T09:57:36.969Z,1.8839,-2.0047,0.4831,0.1075,0.1342,0.0175,28.411101700000003,76.9267716,223.1000,5.7103
2026-02-05T09:57:36.979Z,-0.2181,-1.8189,0.6294,-0.0247,0.0610,0.0117,28.411101700000003,76.9267716,223.1000,5.7103
2026-02-05T09:57:36.988Z,-0.6667,-0.6032,-1.5922,-0.0754,-0.0217,-0.0288,28.411101700000003,76.9267716,223.1000,5.7103
2026-02-05T09:57:36.998Z,0.1996,-0.2417,2.2734,0.0600,0.0596,0.0194,28.411101700000003,76.9267716,223.1000,5.7103
2026-02-05T09:57:37.008Z,-0.4923,0.2634,0.7181,-0.0753,0.0200,-0.0066,28.411101700000003,76.9267716,223.1000,5.7103
2026-02-05T09:57:37.018Z,2.6689,-0.8741,-0.9781,0.0397,0.1576,-0.0040,28.411101700000003,76.9267716,223.1000,5.7103
2026-02-05T09:57:37.029Z,-0.2229,-2.5546,1.1230,-0.0386,0.0676,0.0128,28.411101700000003,76.9267716,223.1000,5.7103
2026-02-05T09:57:37.038Z,-1.3607,-1.0763,-2.2934,-0.0803,-0.0440,-0.0251,28.411101700000003,76.9267716,223.1000,5.7103
2026-02-05T09:57:37.049Z,0.4675,-0.9429,0.3073,0.0541,0.0510,-0.0052,28.411101700000003,76.9267716,223.1000,5.7103
2026-02-05T09:57:37.059Z,0.0281,0.1106,1.4267,-0.0516,0.0605,-0.0006,28.411101700000003,76.9267716,223.1000,5.7103
2026-02-05T09:57:37.068Z,1.3347,0.4050,-1.0528,-0.0597,0.0898,0.0104,28.411101700000003,76.9267716,223.1000,5.7103
2026-02-05T09:57:37.079Z,-1.2616,-0.9954,-0.2086,-0.0077,0.0031,0.0410,28.411101700000003,76.9267716,223.1000,5.7103
2026-02-05T09:57:37.088Z,-1.0205,-1.3793,-0.2965,-0.0338,0.0525,-0.0285,28.411101700000003,76.9267716,223.1000,5.7103
2026-02-05T09:57:37.099Z,1.4351,-0.6161,-0.7100,-0.0759,0.0639,0.0118,28.411101700000003,76.9267716,223.1000,5.7103
2026-02-05T09:57:37.108Z,-0.9928,-0.9702,1.1784,0.0211,0.0221,0.0159,28.411101700000003,76.9267716,223.1000,5.7103
2026-02-05T09:57:37.119Z,1.3403,-1.8854,0.6600,0.0390,0.0967,0.0060,28.411101700000003,76.9267716,223.1000,5.7103
2026-02-05T09:57:37.129Z,-0.8429,-0.9034,0.3068,-0.0428,-0.0288,0.0435,28.411101700000003,76.9267716,223.1000,5.7103
2026-02-05T09:57:37.138Z,0.0478,-0.0870,0.2191,0.0161,0.1129,-0.0132,28.411101700000003,76.9267716,223.1000,5.7103
2026-02-05T09:57:37.148Z,-0.3079,-0.0354,-0.6209,-0.0137,-0.0564,-0.0146,28.411101700000003,76.9267716,223.1000,5.7103
2026-02-05T09:57:37.159Z,-1.0031,1.4483,-1.6597,-0.0218,-0.0299,0.0143,28.411101700000003,76.9267716,223.1000,5.7103
2026-02-05T09:57:37.169Z,0.0997,-0.6654,-0.6764,-0.0120,0.1350,0.0015,28.411101700000003,76.9267716,223.1000,5.7103
2026-02-05T09:57:37.179Z,-1.0191,-1.7995,-1.5311,-0.0862,-0.1801,0.0019,28.411101700000003,76.9267716,223.1000,5.7103
2026-02-05T09:57:37.188Z,0.4872,-0.5806,-1.2263,-0.0737,0.0786,0.0411,28.411101700000003,76.9267716,223.1000,5.7103
2026-02-05T09:57:37.198Z,-0.9640,-0.3846,2.8906,0.0458,0.1045,0.0269,28.411101700000003,76.9267716,223.1000,5.7103
2026-02-05T09:57:37.209Z,0.3693,-0.8100,-1.2552,-0.1022,-0.0841,0.0036,28.411101700000003,76.9267716,223.1000,5.7103
2026-02-05T09:57:37.219Z,-0.1046,-1.7220,-0.3097,-0.0052,0.0561,0.0333,28.411101700000003,76.9267716,223.1000,5.7103
2026-02-05T09:57:37.229Z,0.3278,-0.4266,2.1697,0.0275,0.0844,-0.0200,28.411101700000003,76.9267716,223.1000,5.7103
2026-02-05T09:57:37.238Z,1.1400,-0.6387,-2.1387,-0.0627,0.0738,-0.0035,28.411101700000003,76.9267716,223.1000,5.7103
2026-02-05T09:57:37.248Z,-1.3371,0.2669,-0.2834,-0.0154,-0.0839,0.0580,28.411101700000003,76.9267716,223.1000,5.7103
2026-02-05T09:57:37.258Z,0.7845,-0.4685,1.4150,-0.0623,0.2065,-0.0397,28.411101700000003,76.9267716,223.1000,5.7103
2026-02-05T09:57:37.268Z,0.2514,-1.1498,-0.6634,-0.0496,-0.0111,0.0234,28.411101700000003,76.9267716,223.1000,5.7103
2026-02-05T09:57:37.278Z,-1.1649,-2.5439,-0.5721,-0.0802,0.0660,0.0287,28.411101700000003,76.9267716,223.1000,5.7103
2026-02-05T09:57:37.288Z,-0.7740,-1.2809,1.1071,-0.0402,0.0374,0.0239,28.411101700000003,76.9267716,223.1000,5.7103
2026-02-05T09:57:37.298Z,1.0027,-0.9865,0.4576,-0.0060,0.1434,0.0219,28.411101700000003,76.9267716,223.1000,5.7103
2026-02-05T09:57:37.308Z,1.0580,-1.4151,0.1982,0.0355,0.1372,0.0522,28.411101700000003,76.9267716,223.1000,5.7103
2026-02-05T09:57:37.318Z,-0.1539,1.1175,-1.3539,-0.0767,0.0347,0.0388,28.411101700000003,76.9267716,223.1000,5.7103
2026-02-05T09:57:37.329Z,-1.7333,1.5838,-1.6287,-0.0592,-0.0575,-0.0267,28.411101700000003,76.9267716,223.1000,5.7103
2026-02-05T09:57:37.338Z,-0.5293,-0.0421,-0.5997,-0.0525,-0.0208,-0.0150,28.411101700000003,76.9267716,223.1000,5.7103
2026-02-05T09:57:37.348Z,-0.3033,-1.0021,-1.6819,-0.1004,-0.1233,0.0258,28.411101700000003,76.9267716,223.1000,5.7103
2026-02-05T09:57:37.359Z,1.0153,-2.2436,-0.3736,-0.0221,0.0744,0.0226,28.411101700000003,76.9267716,223.1000,5.7103
2026-02-05T09:57:37.368Z,-1.5814,-2.5379,1.5298,0.0074,-0.0380,0.0681,28.411101700000003,76.9267716,223.1000,5.7103
2026-02-05T09:57:37.378Z,-3.3580,-1.7735,-0.4831,-0.0658,-0.2402,0.0076,28.411101700000003,76.9267716,223.1000,5.7103
2026-02-05T09:57:37.388Z,0.1462,-1.3890,1.1040,-0.0191,-0.0237,-0.0366,28.411101700000003,76.9267716,223.1000,5.7103
2026-02-05T09:57:37.398Z,1.3450,-0.1439,1.9015,0.0152,-0.0643,0.0581,28.411101700000003,76.9267716,223.1000,5.7103
2026-02-05T09:57:37.408Z,0.0271,0.4687,-1.6646,-0.0209,-0.0356,0.0109,28.411101700000003,76.9267716,223.1000,5.7103
2026-02-05T09:57:37.418Z,-1.1044,0.4756,-1.2950,-0.0275,-0.2186,0.0242,28.411101700000003,76.9267716,223.1000,5.7103
2026-02-05T09:57:37.429Z,-3.1516,0.5781,-0.3438,-0.0399,-0.1640,-0.0364,28.411101700000003,76.9267716,223.1000,5.7103
2026-02-05T09:57:37.438Z,0.5196,-1.8580,-1.5394,-0.0230,-0.0596,0.0230,28.411101700000003,76.9267716,223.1000,5.7103
2026-02-05T09:57:37.448Z,-0.8632,-3.7184,1.1332,-0.0361,-0.1436,0.0619,28.411101700000003,76.9267716,223.1000,5.7103
2026-02-05T09:57:37.459Z,-1.7104,-2.3456,1.8284,-0.0411,-0.0887,-0.0339,28.411101700000003,76.9267716,223.1000,5.7103
2026-02-05T09:57:37.468Z,0.1400,-2.1987,1.8105,0.0071,-0.1230,0.0321,28.411101700000003,76.9267716,223.1000,5.7103
2026-02-05T09:57:37.479Z,-0.8789,-1.0117,2.0251,-0.0224,-0.0417,0.0159,28.411101700000003,76.9267716,223.1000,5.7103
2026-02-05T09:57:37.488Z,1.7910,-0.0677,0.4943,0.0267,-0.0711,0.0070,28.411101700000003,76.9267716,223.1000,5.7103
2026-02-05T09:57:37.498Z,0.0177,0.2949,1.7367,0.0643,0.0135,0.0045,28.411101700000003,76.9267716,223.1000,5.7103
2026-02-05T09:57:37.508Z,0.0577,0.1736,-1.1583,-0.0349,-0.1206,-0.0020,28.411101700000003,76.9267716,223.1000,5.7103
2026-02-05T09:57:37.518Z,0.6260,-0.3971,-0.9631,0.0034,-0.0342,-0.0024,28.411101700000003,76.9267716,223.1000,5.7103
2026-02-05T09:57:37.529Z,0.0202,-2.7086,2.0088,0.0480,0.0621,0.0038,28.411101700000003,76.9267716,223.1000,5.7103
2026-02-05T09:57:37.538Z,-2.0941,-2.6162,-0.1376,-0.0440,-0.1779,0.0351,28.411101700000003,76.9267716,223.1000,5.7103
2026-02-05T09:57:37.549Z,1.0704,-2.0712,1.0280,0.0443,0.1040,0.0092,28.411101700000003,76.9267716,223.1000,5.7103
2026-02-05T09:57:37.559Z,1.3996,-0.1912,3.0727,0.0666,0.0445,0.0262,28.411101700000003,76.9267716,223.1000,5.7103
2026-02-05T09:57:37.568Z,-0.1061,1.0260,-0.0819,0.0169,0.0366,-0.0025,28.411101700000003,76.9267716,223.1000,5.7103
2026-02-05T09:57:37.579Z,0.2587,-0.9967,-0.4362,0.0047,0.0111,-0.0186,28.411101700000003,76.9267716,223.1000,5.7103
2026-02-05T09:57:37.588Z,0.7979,-0.8700,-0.2203,0.0053,0.0045,-0.0224,28.411101700000003,76.9267716,223.1000,5.7103
2026-02-05T09:57:37.599Z,2.5922,-0.5580,0.0012,0.0344,0.1600,0.0459,28.411101700000003,76.9267716,223.1000,5.7103
2026-02-05T09:57:37.608Z,1.1823,-1.7533,0.3968,0.0820,0.1092,0.0558,28.411101700000003,76.9267716,223.1000,5.7103
2026-02-05T09:57:37.618Z,-0.0283,-1.3927,-1.3620,0.0146,0.0762,-0.0359,28.411101700000003,76.9267716,223.1000,5.7103
2026-02-05T09:57:37.629Z,0.1521,-0.9967,-0.3492,0.0743,0.0796,-0.0333,28.411101700000003,76.9267716,223.1000,5.7103
2026-02-05T09:57:37.638Z,1.2527,-1.8594,0.2288,0.0468,0.1237,0.0013,28.411101700000003,76.9267716,223.1000,5.7103
2026-02-05T09:57:37.648Z,2.0658,-0.8724,-1.0609,0.0538,0.1313,0.0587,28.411101700000003,76.9267716,223.1000,5.7103
2026-02-05T09:57:37.659Z,1.1218,-0.5009,0.8446,0.0765,0.2214,0.0216,28.411101700000003,76.9267716,223.1000,5.7103
2026-02-05T09:57:37.668Z,1.6027,-0.6616,1.0475,0.0875,0.1675,0.0079,28.411101700000003,76.9267716,223.1000,5.7103
2026-02-05T09:57:37.679Z,0.9223,-1.7865,-0.2337,0.0838,0.1410,0.0085,28.411101700000003,76.9267716,223.1000,5.7103
2026-02-05T09:57:37.688Z,1.1649,-0.9472,-1.3626,0.0602,0.2019,0.0036,28.411101700000003,76.9267716,223.1000,5.7103
2026-02-05T09:57:37.700Z,0.8589,-1.4261,0.7025,0.1316,0.2331,0.0065,28.411101700000003,76.9267716,223.1000,5.7103
2026-02-05T09:57:37.708Z,1.4522,-1.6209,-0.2019,0.0008,0.0967,0.0409,28.411101700000003,76.9267716,223.1000,5.7103
2026-02-05T09:57:37.718Z,0.0910,-0.4717,-0.5277,0.0855,0.1535,0.0581,28.411101700000003,76.9267716,223.1000,5.7103
2026-02-05T09:57:37.728Z,0.5320,-2.5837,2.4980,0.1544,0.2983,0.0131,28.411101700000003,76.9267716,223.1000,5.7103
2026-02-05T09:57:37.738Z,1.3170,-1.0413,-0.6626,-0.0131,0.0870,0.0814,28.411101700000003,76.9267716,223.1000,5.7103
2026-02-05T09:57:37.748Z,-0.4137,-0.3976,1.1745,0.0981,0.3270,0.0061,28.411101700000003,76.9267716,223.1000,5.7103
2026-02-05T09:57:37.759Z,1.9181,-0.1394,0.6838,0.0606,0.2170,-0.0160,28.411101700000003,76.9267716,223.1000,5.7103
2026-02-05T09:57:37.768Z,-0.2706,-1.1874,-2.1578,0.0229,0.1731,0.0061,28.411101700000003,76.9267716,223.1000,5.7103
2026-02-05T09:57:37.779Z,0.2017,-1.1003,-1.2084,0.0789,0.2207,0.0751,28.41105131666667,76.92678590000001,223.3000,5.4531
2026-02-05T09:57:37.788Z,-2.3782,-1.0260,-1.6124,0.0533,0.0388,0.0348,28.41105131666667,76.92678590000001,223.3000,5.4531
2026-02-05T09:57:37.798Z,-1.1249,-0.9589,-2.2486,0.0562,0.0128,-0.0032,28.41105131666667,76.92678590000001,223.3000,5.4531
2026-02-05T09:57:37.808Z,-1.6815,-0.1547,-0.2137,0.0545,0.0526,0.0453,28.41105131666667,76.92678590000001,223.3000,5.4531
2026-02-05T09:57:37.818Z,-1.3984,-0.7568,-0.6678,0.0551,0.0520,0.0082,28.41105131666667,76.92678590000001,223.3000,5.4531
2026-02-05T09:57:37.828Z,-1.0928,-1.6177,-0.8830,0.0514,0.0104,0.0111,28.41105131666667,76.92678590000001,223.3000,5.4531
2026-02-05T09:57:37.838Z,-3.9352,-0.8496,-1.1007,-0.0399,-0.0859,0.0355,28.41105131666667,76.92678590000001,223.3000,5.4531
2026-02-05T09:57:37.848Z,-1.9433,-1.3074,-0.4818,0.0510,-0.0831,-0.0237,28.41105131666667,76.92678590000001,223.3000,5.4531
2026-02-05T09:57:37.859Z,-0.9917,0.5632,-0.4861,0.0002,-0.1421,-0.0202,28.41105131666667,76.92678590000001,223.3000,5.4531
2026-02-05T09:57:37.868Z,-0.4518,0.4495,-1.1548,0.0436,-0.0332,0.0042,28.41105131666667,76.92678590000001,223.3000,5.4531
2026-02-05T09:57:37.878Z,-1.9729,-2.0032,-0.7466,0.0248,-0.2190,0.0056,28.41105131666667,76.92678590000001,223.3000,5.4531
2026-02-05T09:57:37.888Z,-2.6967,-0.3355,-3.2975,-0.0836,-0.3156,0.0073,28.41105131666667,76.92678590000001,223.3000,5.4531
2026-02-05T09:57:37.899Z,-1.8547,-0.9855,0.1544,0.0710,-0.0714,-0.0140,28.41105131666667,76.92678590000001,223.3000,5.4531
2026-02-05T09:57:37.908Z,-2.4463,-0.4587,0.3192,-0.0645,-0.4071,0.0008,28.41105131666667,76.92678590000001,223.3000,5.4531
2026-02-05T09:57:37.918Z,-2.5131,-0.2214,-1.4386,-0.0740,-0.2939,-0.0459,28.41105131666667,76.92678590000001,223.3000,5.4531
2026-02-05T09:57:37.928Z,-0.6524,-1.8801,1.7085,-0.0042,-0.0906,-0.0295,28.41105131666667,76.92678590000001,223.3000,5.4531
2026-02-05T09:57:37.938Z,-2.0226,0.4415,-1.4394,-0.0910,-0.4121,-0.0030,28.41105131666667,76.92678590000001,223.3000,5.4531
2026-02-05T09:57:37.949Z,-1.1255,0.0248,-1.0264,-0.0127,-0.2128,-0.0029,28.41105131666667,76.92678590000001,223.3000,5.4531
2026-02-05T09:57:37.959Z,-0.2960,-0.1772,-0.4174,-0.1134,-0.2457,-0.0198,28.41105131666667,76.92678590000001,223.3000,5.4531
2026-02-05T09:57:37.969Z,-0.1733,-1.3180,-1.0868,-0.1116,-0.1410,-0.0413,28.41105131666667,76.92678590000001,223.3000,5.4531
2026-02-05T09:57:37.979Z,-0.7642,-1.6981,0.5904,-0.0980,-0.2750,-0.0084,28.41105131666667,76.92678590000001,223.3000,5.4531
2026-02-05T09:57:37.988Z,-1.2419,0.5210,-0.2703,-0.1474,-0.2301,-0.0307,28.41105131666667,76.92678590000001,223.3000,5.4531
2026-02-05T09:57:37.998Z,1.3880,-0.1772,1.3516,-0.0865,-0.0524,-0.0061,28.41105131666667,76.92678590000001,223.3000,5.4531
2026-02-05T09:57:38.008Z,0.9359,-1.1801,1.3020,-0.0805,-0.0404,0.0020,28.41105131666667,76.92678590000001,223.3000,5.4531
2026-02-05T09:57:38.019Z,-0.2546,-0.4343,-0.6371,-0.0842,-0.1356,-0.0282,28.41105131666667,76.92678590000001,223.3000,5.4531
2026-02-05T09:57:38.028Z,-0.3913,0.0418,-0.2919,-0.1148,-0.1449,-0.0000,28.41105131666667,76.92678590000001,223.3000,5.4531
2026-02-05T09:57:38.038Z,1.3519,-0.6381,-0.0448,-0.0718,0.0498,-0.0292,28.41105131666667,76.92678590000001,223.3000,5.4531
2026-02-05T09:57:38.049Z,2.7274,-1.6600,-1.1507,-0.0789,0.0347,0.0435,28.41105131666667,76.92678590000001,223.3000,5.4531
2026-02-05T09:57:38.059Z,1.0622,-2.5272,0.3930,-0.0279,0.0398,0.0449,28.41105131666667,76.92678590000001,223.3000,5.4531
2026-02-05T09:57:38.069Z,0.4892,-1.6694,1.1561,-0.1523,-0.0928,-0.0025,28.41105131666667,76.92678590000001,223.3000,5.4531
2026-02-05T09:57:38.078Z,0.3302,0.1105,0.7032,-0.1139,-0.0993,-0.0082,28.41105131666667,76.92678590000001,223.3000,5.4531
2026-02-05T09:57:38.088Z,3.5856,-2.1480,3.5626,0.0243,0.1056,-0.0689,28.41105131666667,76.92678590000001,223.3000,5.4531
2026-02-05T09:57:38.099Z,4.2544,-0.7376,1.8754,-0.0952,-0.0224,0.1211,28.41105131666667,76.92678590000001,223.3000,5.4531
2026-02-05T09:57:38.108Z,0.5687,-0.3580,1.1413,-0.0070,0.1311,0.0211,28.41105131666667,76.92678590000001,223.3000,5.4531
2026-02-05T09:57:38.119Z,-0.0495,-1.2463,2.2694,0.0028,-0.0808,0.0266,28.41105131666667,76.92678590000001,223.3000,5.4531
2026-02-05T09:57:38.128Z,0.0964,-1.2597,1.1099,-0.0871,-0.1116,0.0518,28.41105131666667,76.92678590000001,223.3000,5.4531
2026-02-05T09:57:38.138Z,2.1004,-1.9960,2.6396,0.0477,0.1366,0.0578,28.41105131666667,76.92678590000001,223.3000,5.4531
2026-02-05T09:57:38.148Z,2.3740,-1.5640,2.6774,0.0390,-0.0135,0.0997,28.41105131666667,76.92678590000001,223.3000,5.4531
2026-02-05T09:57:38.159Z,1.5691,-0.8721,0.7146,-0.0381,0.0766,0.0721,28.41105131666667,76.92678590000001,223.3000,5.4531
2026-02-05T09:57:38.169Z,1.1362,0.2536,1.4894,0.0620,0.1016,0.0534,28.41105131666667,76.92678590000001,223.3000,5.4531
2026-02-05T09:57:38.178Z,0.0608,-0.4725,1.3926,0.0733,0.1021,0.0177,28.41105131666667,76.92678590000001,223.3000,5.4531
2026-02-05T09:57:38.188Z,0.8277,-1.2117,-0.4816,-0.0312,-0.0336,0.0549,28.41105131666667,76.92678590000001,223.3000,5.4531
2026-02-05T09:57:38.199Z,1.0628,-1.0389,1.2907,0.0327,0.1941,0.0638,28.41105131666667,76.92678590000001,223.3000,5.4531
2026-02-05T09:57:38.208Z,0.2135,-0.0970,2.3307,0.0976,0.1592,0.0448,28.41105131666667,76.92678590000001,223.3000,5.4531
2026-02-05T09:57:38.218Z,-1.3902,-0.6690,0.0018,0.0612,0.0690,0.0195,28.41105131666667,76.92678590000001,223.3000,5.4531
2026-02-05T09:57:38.229Z,-0.2222,-0.6371,0.5156,0.0525,0.1289,0.0138,28.41105131666667,76.92678590000001,223.3000,5.4531
2026-02-05T09:57:38.238Z,0.4356,-0.1304,0.6241,0.0581,0.1140,0.0395,28.41105131666667,76.92678590000001,223.3000,5.4531
2026-02-05T09:57:38.248Z,0.6633,-1.1501,-0.7017,0.0687,0.1929,0.0133,28.41105131666667,76.92678590000001,223.3000,5.4531
2026-02-05T09:57:38.258Z,-0.0928,-1.1580,-0.5784,0.0587,0.0960,0.0554,28.41105131666667,76.92678590000001,223.3000,5.4531
2026-02-05T09:57:38.269Z,-1.9933,-0.5229,-0.2169,0.0320,0.0614,0.0043,28.41105131666667,76.92678590000001,223.3000,5.4531
2026-02-05T09:57:38.278Z,-0.0198,-1.1398,-0.5077,0.0647,0.0719,-0.0162,28.41105131666667,76.92678590000001,223.3000,5.4531
2026-02-05T09:57:38.288Z,-0.5314,0.0779,-0.3451,0.0356,0.0693,-0.0179,28.41105131666667,76.92678590000001,223.3000,5.4531
2026-02-05T09:57:38.299Z,-0.0370,-0.5212,-0.0920,0.0702,0.1447,-0.0021,28.41105131666667,76.92678590000001,223.3000,5.4531
2026-02-05T09:57:38.308Z,-0.5754,-1.2331,-0.2876,0.0804,0.0778,0.0110,28.41105131666667,76.92678590000001,223.3000,5.4531
2026-02-05T09:57:38.318Z,-1.1610,-1.1155,-1.6771,0.0679,0.0435,-0.0010,28.41105131666667,76.92678590000001,223.3000,5.4531
2026-02-05T09:57:38.329Z,-1.1815,-1.0216,-0.4219,0.0988,0.1047,-0.0256,28.41105131666667,76.92678590000001,223.3000,5.4531
2026-02-05T09:57:38.338Z,-1.0754,-0.6493,-0.2715,0.0986,0.0454,-0.0442,28.41105131666667,76.92678590000001,223.3000,5.4531
2026-02-05T09:57:38.349Z,-0.3884,-0.7083,-1.5408,0.0453,-0.0019,-0.0227,28.41105131666667,76.92678590000001,223.3000,5.4531
2026-02-05T09:57:38.359Z,-0.3180,-0.7388,-0.4633,0.0994,0.0717,-0.0050,28.41105131666667,76.92678590000001,223.3000,5.4531
2026-02-05T09:57:38.369Z,0.4617,-1.0004,-0.7248,0.0990,0.1301,-0.0376,28.41105131666667,76.92678590000001,223.3000,5.4531
2026-02-05T09:57:38.379Z,-1.6270,-0.4151,-2.6798,0.0814,-0.0660,0.0017,28.41105131666667,76.92678590000001,223.3000,5.4531
2026-02-05T09:57:38.388Z,-2.2097,0.3508,-1.2013,0.1199,0.0042,-0.0544,28.41105131666667,76.92678590000001,223.3000,5.4531
2026-02-05T09:57:38.399Z,-0.5254,-0.5576,-0.6919,0.1316,-0.0265,-0.0470,28.41105131666667,76.92678590000001,223.3000,5.4531
2026-02-05T09:57:38.408Z,-0.0075,-0.7942,-2.8533,0.0514,-0.1127,0.0122,28.41105131666667,76.92678590000001,223.3000,5.4531
2026-02-05T09:57:38.419Z,0.2665,-0.9236,-0.8465,0.1201,0.1403,-0.0086,28.41105131666667,76.92678590000001,223.3000,5.4531
2026-02-05T09:57:38.428Z,-1.5894,-0.0700,0.2410,0.1627,-0.0965,-0.0264,28.41105131666667,76.92678590000001,223.3000,5.4531
2026-02-05T09:57:38.438Z,-1.9507,-0.3441,-3.0714,0.0394,-0.0903,-0.0398,28.41105131666667,76.92678590000001,223.3000,5.4531
2026-02-05T09:57:38.448Z,-0.2313,-0.6463,-1.7312,0.0927,-0.0988,-0.0281,28.41105131666667,76.92678590000001,223.3000,5.4531
2026-02-05T09:57:38.461Z,0.3706,-1.4988,-2.1321,0.0642,-0.0996,0.0173,28.41105131666667,76.92678590000001,223.3000,5.4531
2026-02-05T09:57:38.468Z,0.3706,-1.4988,-2.1321,0.0642,-0.0996,0.0173,28.41105131666667,76.92678590000001,223.3000,5.4531
2026-02-05T09:57:38.479Z,-0.7547,-0.1600,-1.1363,0.0796,-0.0600,-0.0041,28.41105131666667,76.92678590000001,223.3000,5.4531
2026-02-05T09:57:38.488Z,-0.3871,0.1624,0.6619,0.0844,0.0251,-0.0385,28.41105131666667,76.92678590000001,223.3000,5.4531
2026-02-05T09:57:38.498Z,-0.3082,-0.8507,-1.8660,0.0397,-0.1728,0.0181,28.41105131666667,76.92678590000001,223.3000,5.4531
2026-02-05T09:57:38.510Z,0.9379,-0.9601,0.2476,0.0726,0.0634,0.0125,28.41105131666667,76.92678590000001,223.3000,5.4531
2026-02-05T09:57:38.519Z,0.9379,-0.9601,0.2476,0.0726,0.0634,0.0125,28.41105131666667,76.92678590000001,223.3000,5.4531
2026-02-05T09:57:38.529Z,-0.4650,-0.9663,-0.6703,-0.0050,-0.0748,0.0224,28.41105131666667,76.92678590000001,223.3000,5.4531
2026-02-05T09:57:38.538Z,-0.4876,-1.3657,-0.8084,-0.0145,-0.0918,0.0099,28.41105131666667,76.92678590000001,223.3000,5.4531
2026-02-05T09:57:38.548Z,0.5578,-0.8103,1.1408,0.0085,0.0406,0.0080,28.41105131666667,76.92678590000001,223.3000,5.4531
2026-02-05T09:57:38.560Z,-0.2838,-1.4186,0.6532,-0.0591,-0.0702,0.0057,28.41105131666667,76.92678590000001,223.3000,5.4531
2026-02-05T09:57:38.568Z,-0.2838,-1.4186,0.6532,-0.0591,-0.0702,0.0057,28.41105131666667,76.92678590000001,223.3000,5.4531
2026-02-05T09:57:38.579Z,-0.0387,-1.0694,0.8636,-0.0919,-0.0204,0.0036,28.41105131666667,76.92678590000001,223.3000,5.4531
2026-02-05T09:57:38.588Z,-0.4529,-0.7804,0.7083,-0.0578,0.0055,-0.0148,28.41105131666667,76.92678590000001,223.3000,5.4531
2026-02-05T09:57:38.598Z,0.2717,-0.7025,0.7731,-0.0939,-0.0861,0.0229,28.41105131666667,76.92678590000001,223.3000,5.4531
2026-02-05T09:57:38.610Z,0.2746,-0.9926,1.1748,-0.0870,-0.0879,0.0351,28.41105131666667,76.92678590000001,223.3000,5.4531
2026-02-05T09:57:38.618Z,0.2746,-0.9926,1.1748,-0.0870,-0.0879,0.0351,28.41105131666667,76.92678590000001,223.3000,5.4531
2026-02-05T09:57:38.629Z,0.0076,-1.4397,0.9055,-0.1899,-0.1161,0.0087,28.41105131666667,76.92678590000001,223.3000,5.4531
2026-02-05T09:57:38.638Z,0.3810,-0.6960,-0.1663,-0.1899,-0.1161,0.0087,28.41105131666667,76.92678590000001,223.3000,5.4531
2026-02-05T09:57:38.648Z,-0.3882,-0.2074,1.7251,-0.1399,0.0124,-0.0064,28.41105131666667,76.92678590000001,223.3000,5.4531
2026-02-05T09:57:38.660Z,0.3806,-1.2591,-0.1530,-0.1388,0.0135,0.0092,28.41105131666667,76.92678590000001,223.3000,5.4531
2026-02-05T09:57:38.670Z,0.3806,-1.2591,-0.1530,-0.1559,-0.0134,0.0161,28.41105131666667,76.92678590000001,223.3000,5.4531
2026-02-05T09:57:38.678Z,0.3698,-1.2352,0.8937,-0.1559,-0.0134,0.0161,28.41105131666667,76.92678590000001,223.3000,5.4531
2026-02-05T09:57:38.688Z,-0.4250,-0.6713,-0.8648,-0.2001,-0.0579,-0.0305,28.41105131666667,76.92678590000001,223.3000,5.4531
2026-02-05T09:57:38.698Z,-0.4843,-0.4607,0.5573,-0.1333,-0.0557,-0.0092,28.41105131666667,76.92678590000001,223.3000,5.4531
2026-02-05T09:57:38.710Z,1.7507,-1.1717,-0.5640,-0.1493,0.0539,0.0086,28.41105131666667,76.92678590000001,223.3000,5.4531
2026-02-05T09:57:38.720Z,1.7507,-1.1717,-0.5640,-0.1474,-0.0477,0.0117,28.41105131666667,76.92678590000001,223.3000,5.4531
2026-02-05T09:57:38.728Z,-0.8174,-1.5330,0.4738,-0.1568,-0.0907,-0.0271,28.41105131666667,76.92678590000001,223.3000,5.4531
2026-02-05T09:57:38.738Z,-1.3941,-0.3852,-1.2421,-0.1568,-0.0907,-0.0271,28.41105131666667,76.92678590000001,223.3000,5.4531
2026-02-05T09:57:38.751Z,0.6814,0.2278,0.2722,-0.1184,-0.0998,0.0243,28.41105131666667,76.92678590000001,223.3000,5.4531
2026-02-05T09:57:38.759Z,0.8234,-0.8877,-0.0723,-0.0932,0.1027,-0.0146,28.41105131666667,76.92678590000001,223.3000,5.4531
2026-02-05T09:57:38.769Z,0.8234,-0.8877,-0.0723,-0.0753,-0.0899,-0.0081,28.41105131666667,76.92678590000001,223.3000,5.4531
2026-02-05T09:57:38.780Z,-0.4687,-1.1038,0.1332,-0.1050,-0.0533,-0.0124,28.41105131666667,76.92678590000001,223.3000,5.4531
2026-02-05T09:57:38.788Z,-0.6591,-1.0521,-0.4552,-0.1050,-0.0533,-0.0124,28.411005066666664,76.92679963333333,223.4000,4.8872
2026-02-05T09:57:38.798Z,0.0377,-1.0168,0.4951,-0.0506,-0.0384,0.0200,28.411005066666664,76.92679963333333,223.4000,4.8872
2026-02-05T09:57:38.810Z,0.1899,-1.3102,0.4156,-0.0633,-0.0154,0.0012,28.411005066666664,76.92679963333333,223.4000,4.8872
2026-02-05T09:57:38.820Z,0.1899,-1.3102,0.4156,-0.0552,-0.0589,0.0200,28.411005066666664,76.92679963333333,223.4000,4.8872
2026-02-05T09:57:38.828Z,0.1728,-0.3032,0.4888,-0.0552,-0.0589,0.0200,28.411005066666664,76.92679963333333,223.4000,4.8872
2026-02-05T09:57:38.838Z,-0.0645,-0.6814,1.2433,-0.0099,0.0378,0.0089,28.411005066666664,76.92679963333333,223.4000,4.8872
2026-02-05T09:57:38.851Z,0.2081,-0.5193,0.2318,-0.0105,0.0607,0.0204,28.411005066666664,76.92679963333333,223.4000,4.8872
2026-02-05T09:57:38.860Z,0.3324,-0.6784,1.9150,0.0131,0.0273,0.0172,28.411005066666664,76.92679963333333,223.4000,4.8872
2026-02-05T09:57:38.870Z,0.3324,-0.6784,1.9150,-0.0792,-0.0873,0.0439,28.411005066666664,76.92679963333333,223.4000,4.8872
2026-02-05T09:57:38.878Z,-0.0214,-0.5757,-0.4990,-0.0792,-0.0873,0.0439,28.411005066666664,76.92679963333333,223.4000,4.8872
2026-02-05T09:57:38.888Z,1.0718,-1.2036,0.4944,0.0236,0.1219,0.0182,28.411005066666664,76.92679963333333,223.4000,4.8872
2026-02-05T09:57:38.900Z,1.0986,-1.4449,1.5282,-0.0311,-0.0253,0.0389,28.411005066666664,76.92679963333333,223.4000,4.8872
2026-02-05T09:57:38.911Z,0.4505,-0.0056,0.3473,0.0409,0.0345,0.0354,28.411005066666664,76.92679963333333,223.4000,4.8872
2026-02-05T09:57:38.920Z,0.4505,-0.0056,0.3473,0.0657,0.0802,0.0411,28.411005066666664,76.92679963333333,223.4000,4.8872
2026-02-05T09:57:38.928Z,0.4031,0.3380,1.0164,0.0143,0.0513,0.0351,28.411005066666664,76.92679963333333,223.4000,4.8872
2026-02-05T09:57:38.938Z,0.3785,-0.1488,-1.0666,0.0143,0.0513,0.0351,28.411005066666664,76.92679963333333,223.4000,4.8872
2026-02-05T09:57:38.950Z,1.0328,-1.1318,-0.4839,0.0154,0.0545,0.0399,28.411005066666664,76.92679963333333,223.4000,4.8872
2026-02-05T09:57:38.959Z,-0.8460,-0.9022,-0.3648,0.0195,0.0136,0.0189,28.411005066666664,76.92679963333333,223.4000,4.8872
2026-02-05T09:57:38.970Z,-0.8460,-0.9022,-0.3648,0.0864,0.1482,0.0282,28.411005066666664,76.92679963333333,223.4000,4.8872
2026-02-05T09:57:38.982Z,-0.9042,-0.4501,0.5393,0.0608,0.0912,0.0418,28.411005066666664,76.92679963333333,223.4000,4.8872
2026-02-05T09:57:38.989Z,-0.9042,-0.4501,0.5393,0.0928,0.0732,0.0430,28.411005066666664,76.92679963333333,223.4000,4.8872
2026-02-05T09:57:38.999Z,0.8232,-0.1766,-0.2104,0.0885,0.1017,0.0312,28.411005066666664,76.92679963333333,223.4000,4.8872
2026-02-05T09:57:39.009Z,-0.2486,0.2704,-1.4636,0.0425,-0.0482,0.0301,28.411005066666664,76.92679963333333,223.4000,4.8872
2026-02-05T09:57:39.020Z,-0.2486,0.2704,-1.4636,0.0547,0.1781,-0.0162,28.411005066666664,76.92679963333333,223.4000,4.8872
2026-02-05T09:57:39.030Z,0.2485,-0.7137,-0.4390,0.0568,-0.0197,0.0175,28.411005066666664,76.92679963333333,223.4000,4.8872
2026-02-05T09:57:39.039Z,-0.4693,-0.9083,0.5250,0.0447,-0.0569,0.0069,28.411005066666664,76.92679963333333,223.4000,4.8872
2026-02-05T09:57:39.049Z,-0.2993,0.1086,-1.4579,0.0582,0.1283,-0.0209,28.411005066666664,76.92679963333333,223.4000,4.8872
2026-02-05T09:57:39.060Z,0.4471,-0.1338,0.0605,0.0664,0.0132,0.0585,28.411005066666664,76.92679963333333,223.4000,4.8872
2026-02-05T09:57:39.069Z,0.4471,-0.1338,0.0605,0.0080,0.0170,-0.0160,28.411005066666664,76.92679963333333,223.4000,4.8872
2026-02-05T09:57:39.080Z,-0.9758,-1.0698,-1.2731,0.0769,0.0510,-0.0202,28.411005066666664,76.92679963333333,223.4000,4.8872
2026-02-05T09:57:39.089Z,0.2698,-1.1624,-0.0535,0.0272,-0.0256,0.0277,28.411005066666664,76.92679963333333,223.4000,4.8872