time,ax,ay,az,wx,wy,wz,latitude,longitude,altitude,speed
2026-02-05T09:54:47.687Z,-0.6698,-0.5662,-0.3661,-0.0286,-0.0741,0.0173,28.413262033333332,76.92531408333333,221.9000,4.2184
2026-02-05T09:54:47.696Z,0.0066,-0.7085,0.7638,0.0192,-0.0325,0.0300,28.413262033333332,76.92531408333333,221.9000,4.2184
2026-02-05T09:54:47.706Z,-0.5558,-0.8351,0.1058,-0.0099,-0.1250,0.0296,28.413262033333332,76.92531408333333,221.9000,4.2184
2026-02-05T09:54:47.716Z,0.3945,-0.5988,-0.5053,-0.0503,-0.0216,0.0185,28.413262033333332,76.92531408333333,221.9000,4.2184
2026-02-05T09:54:47.725Z,-0.1539,0.2310,0.9596,0.0532,-0.1394,-0.0072,28.413262033333332,76.92531408333333,221.9000,4.2184
2026-02-05T09:54:47.736Z,0.5673,0.3329,0.4220,0.0094,0.0357,-0.0034,28.413262033333332,76.92531408333333,221.9000,4.2184
2026-02-05T09:54:47.747Z,-0.3925,0.4283,-0.8258,-0.0186,-0.1741,0.0244,28.413262033333332,76.92531408333333,221.9000,4.2184
2026-02-05T09:54:47.756Z,-0.3925,0.4283,-0.8258,0.0323,0.1151,0.0107,28.413262033333332,76.92531408333333,221.9000,4.2184
2026-02-05T09:54:47.766Z,-0.1135,-0.9665,0.2543,-0.0065,-0.1305,0.0117,28.413262033333332,76.92531408333333,221.9000,4.2184
2026-02-05T09:54:47.777Z,-0.4323,-1.3527,-0.8089,-0.0526,-0.0131,0.0105,28.413262033333332,76.92531408333333,221.9000,4.2184
2026-02-05T09:54:47.787Z,-0.4323,-1.3527,-0.8089,0.0154,-0.0165,0.0373,28.413262033333332,76.92531408333333,221.9000,4.2184
2026-02-05T09:54:47.796Z,0.4379,-0.0438,1.2252,0.0430,-0.0158,0.0097,28.41322653333333,76.92532460000001,221.9000,3.6526
2026-02-05T09:54:47.807Z,0.4379,-0.0438,1.2252,-0.0206,0.0954,0.0377,28.41322653333333,76.92532460000001,221.9000,3.6526
2026-02-05T09:54:47.816Z,-0.4092,0.0228,-0.1732,0.0239,-0.0821,0.0236,28.41322653333333,76.92532460000001,221.9000,3.6526
2026-02-05T09:54:47.827Z,0.9312,0.5432,0.3937,0.0321,0.0456,-0.0084,28.41322653333333,76.92532460000001,221.9000,3.6526
2026-02-05T09:54:47.836Z,1.3332,0.3707,-0.5933,-0.0130,-0.0003,0.0380,28.41322653333333,76.92532460000001,221.9000,3.6526
2026-02-05T09:54:47.846Z,0.6514,0.6503,-0.9918,-0.0154,0.0746,0.0201,28.41322653333333,76.92532460000001,221.9000,3.6526
2026-02-05T09:54:47.856Z,0.6514,0.6503,-0.9918,0.0402,-0.0058,0.0359,28.41322653333333,76.92532460000001,221.9000,3.6526
2026-02-05T09:54:47.867Z,0.0768,-1.2954,-0.4846,-0.0203,0.0303,0.0179,28.41322653333333,76.92532460000001,221.9000,3.6526
2026-02-05T09:54:47.876Z,1.1102,-0.4463,-0.6180,-0.0426,0.0950,0.0410,28.41322653333333,76.92532460000001,221.9000,3.6526
2026-02-05T09:54:47.887Z,-0.1257,0.1228,0.8243,0.0430,-0.0266,0.0221,28.41322653333333,76.92532460000001,221.9000,3.6526
2026-02-05T09:54:47.896Z,0.9775,-0.0952,0.6378,0.0605,0.1393,0.0221,28.41322653333333,76.92532460000001,221.9000,3.6526
2026-02-05T09:54:47.906Z,0.9775,-0.0952,0.6378,-0.0371,-0.0558,0.0441,28.41322653333333,76.92532460000001,221.9000,3.6526
2026-02-05T09:54:47.916Z,1.4537,0.1135,-0.7649,-0.0046,0.2057,0.0019,28.41322653333333,76.92532460000001,221.9000,3.6526
2026-02-05T09:54:47.933Z,0.4136,-0.0766,1.2394,0.0893,0.0033,0.0727,28.41322653333333,76.92532460000001,221.9000,3.6526
2026-02-05T09:54:47.936Z,-0.8867,-0.5125,-0.8359,-0.0612,0.0055,-0.0044,28.41322653333333,76.92532460000001,221.9000,3.6526
2026-02-05T09:54:47.946Z,1.9619,-0.4634,-0.7184,-0.0575,0.2004,0.0182,28.41322653333333,76.92532460000001,221.9000,3.6526
2026-02-05T09:54:47.956Z,-0.9716,-1.2405,2.4062,0.1125,-0.1020,0.0477,28.41322653333333,76.92532460000001,221.9000,3.6526
2026-02-05T09:54:47.968Z,0.8189,-0.4870,0.5865,0.0178,0.2524,0.0043,28.41322653333333,76.92532460000001,221.9000,3.6526
2026-02-05T09:54:47.976Z,-0.8861,-0.3495,-1.2026,-0.0037,-0.1169,0.0643,28.41322653333333,76.92532460000001,221.9000,3.6526
2026-02-05T09:54:47.986Z,-0.8861,-0.3495,-1.2026,0.0724,0.0474,-0.0080,28.41322653333333,76.92532460000001,221.9000,3.6526
2026-02-05T09:54:47.996Z,-1.2284,0.7092,0.8048,0.0673,0.0839,0.0261,28.41322653333333,76.92532460000001,221.9000,3.6526
2026-02-05T09:54:48.006Z,1.3449,1.1234,0.0415,0.0119,-0.0507,0.0680,28.41322653333333,76.92532460000001,221.9000,3.6526
2026-02-05T09:54:48.016Z,0.5783,-0.3290,-1.3943,-0.0025,0.2184,0.0252,28.41322653333333,76.92532460000001,221.9000,3.6526
2026-02-05T09:54:48.026Z,-0.5141,0.0569,0.0691,0.0409,-0.0993,0.0245,28.41322653333333,76.92532460000001,221.9000,3.6526
2026-02-05T09:54:48.036Z,-0.5141,0.0569,0.0691,0.0019,0.1624,0.0204,28.41322653333333,76.92532460000001,221.9000,3.6526
2026-02-05T09:54:48.046Z,0.1234,-0.0883,-0.4916,0.0108,0.0428,0.0399,28.41322653333333,76.92532460000001,221.9000,3.6526
2026-02-05T09:54:48.056Z,1.0357,-0.9563,0.2938,0.0120,0.0843,0.0222,28.41322653333333,76.92532460000001,221.9000,3.6526
2026-02-05T09:54:48.068Z,0.1012,-0.7615,1.1678,0.0758,0.0719,0.0006,28.41322653333333,76.92532460000001,221.9000,3.6526
2026-02-05T09:54:48.076Z,-0.6299,0.5014,0.5061,0.0426,0.0255,0.0551,28.41322653333333,76.92532460000001,221.9000,3.6526
2026-02-05T09:54:48.086Z,-0.9099,0.7267,-0.8798,0.0360,0.1284,0.0335,28.41322653333333,76.92532460000001,221.9000,3.6526
2026-02-05T09:54:48.096Z,-0.9099,0.7267,-0.8798,0.0481,0.0081,0.0149,28.41322653333333,76.92532460000001,221.9000,3.6526
2026-02-05T09:54:48.106Z,-0.6337,-0.0183,-0.2991,0.0299,-0.0158,0.0429,28.41322653333333,76.92532460000001,221.9000,3.6526
2026-02-05T09:54:48.117Z,0.4655,-0.0316,-1.5090,0.0188,0.1018,0.0417,28.41322653333333,76.92532460000001,221.9000,3.6526
2026-02-05T09:54:48.126Z,-0.2260,0.4716,-1.2820,-0.0034,-0.0210,0.0477,28.41322653333333,76.92532460000001,221.9000,3.6526
2026-02-05T09:54:48.136Z,-0.9717,0.3538,-0.4876,-0.0061,-0.0101,0.0029,28.41322653333333,76.92532460000001,221.9000,3.6526
2026-02-05T09:54:48.147Z,-1.1722,-0.0231,-0.4088,0.0154,-0.1145,0.0248,28.41322653333333,76.92532460000001,221.9000,3.6526
2026-02-05T09:54:48.156Z,-1.4017,0.3868,-1.0418,-0.0400,-0.1340,0.0082,28.41322653333333,76.92532460000001,221.9000,3.6526
2026-02-05T09:54:48.166Z,-0.0591,1.0039,-0.0752,0.0010,-0.0236,0.0505,28.41322653333333,76.92532460000001,221.9000,3.6526
2026-02-05T09:54:48.176Z,-1.4682,0.8565,0.4871,0.0452,-0.1458,0.0185,28.41322653333333,76.92532460000001,221.9000,3.6526
2026-02-05T09:54:48.188Z,-1.1536,1.5530,-1.7732,-0.0768,-0.0585,0.0301,28.41322653333333,76.92532460000001,221.9000,3.6526
2026-02-05T09:54:48.197Z,-1.6835,0.5511,-1.6916,-0.0618,-0.2077,0.0009,28.41322653333333,76.92532460000001,221.9000,3.6526
2026-02-05T09:54:48.207Z,0.2009,0.3685,0.2780,-0.0238,-0.0030,-0.0037,28.41322653333333,76.92532460000001,221.9000,3.6526
2026-02-05T09:54:48.217Z,0.4101,0.2239,-1.0157,-0.0967,-0.0950,0.0052,28.41322653333333,76.92532460000001,221.9000,3.6526
2026-02-05T09:54:48.226Z,-1.1331,0.8403,-1.9993,-0.1357,-0.0501,0.0041,28.41322653333333,76.92532460000001,221.9000,3.6526
2026-02-05T09:54:48.237Z,-1.3736,0.7128,0.7215,-0.0276,-0.0864,-0.0150,28.41322653333333,76.92532460000001,221.9000,3.6526
2026-02-05T09:54:48.247Z,-1.4771,0.8253,-0.2070,-0.0887,-0.1750,-0.0237,28.41322653333333,76.92532460000001,221.9000,3.6526
2026-02-05T09:54:48.257Z,0.3186,0.9052,-1.6851,-0.1693,0.0334,0.0155,28.41322653333333,76.92532460000001,221.9000,3.6526
2026-02-05T09:54:48.266Z,-0.3154,1.5033,0.7329,-0.0615,-0.1095,-0.0033,28.41322653333333,76.92532460000001,221.9000,3.6526
2026-02-05T09:54:48.278Z,-0.3203,1.0637,0.9182,-0.1031,-0.0292,-0.0022,28.41322653333333,76.92532460000001,221.9000,3.6526
2026-02-05T09:54:48.287Z,-0.8422,0.0826,-0.9549,-0.1388,-0.1417,-0.0012,28.41322653333333,76.92532460000001,221.9000,3.6526
2026-02-05T09:54:48.297Z,-0.8422,0.0826,-0.9549,-0.0788,-0.0113,-0.0213,28.41322653333333,76.92532460000001,221.9000,3.6526
2026-02-05T09:54:48.306Z,0.3471,0.7040,0.5314,-0.0941,-0.0820,-0.0120,28.41322653333333,76.92532460000001,221.9000,3.6526
2026-02-05T09:54:48.316Z,0.3952,1.2587,0.2952,-0.0475,-0.0436,0.0150,28.41322653333333,76.92532460000001,221.9000,3.6526
2026-02-05T09:54:48.328Z,0.1031,1.0978,0.0205,-0.1236,-0.0630,-0.0076,28.41322653333333,76.92532460000001,221.9000,3.6526
2026-02-05T09:54:48.337Z,0.0057,1.1366,-0.4999,-0.0691,-0.1118,-0.0322,28.41322653333333,76.92532460000001,221.9000,3.6526
2026-02-05T09:54:48.346Z,0.5172,1.8208,0.3284,-0.0360,-0.0371,0.0111,28.41322653333333,76.92532460000001,221.9000,3.6526
2026-02-05T09:54:48.356Z,0.4040,1.4411,-0.4644,-0.1257,-0.0613,0.0037,28.41322653333333,76.92532460000001,221.9000,3.6526
2026-02-05T09:54:48.366Z,0.4446,0.3294,0.3322,-0.0515,-0.0570,0.0349,28.41322653333333,76.92532460000001,221.9000,3.6526
2026-02-05T09:54:48.378Z,-0.0776,0.5057,1.3673,-0.0578,-0.0828,-0.0157,28.41322653333333,76.92532460000001,221.9000,3.6526
2026-02-05T09:54:48.386Z,0.6287,1.8643,0.5125,-0.0714,-0.0530,0.0036,28.41322653333333,76.92532460000001,221.9000,3.6526
2026-02-05T09:54:48.396Z,0.6287,1.8643,0.5125,-0.0284,-0.0268,0.0313,28.41322653333333,76.92532460000001,221.9000,3.6526
2026-02-05T09:54:48.407Z,0.6602,0.5118,2.0544,-0.0122,-0.1298,-0.0116,28.41322653333333,76.92532460000001,221.9000,3.6526
2026-02-05T09:54:48.417Z,1.5081,0.4683,0.4718,-0.0537,0.0850,0.0469,28.41322653333333,76.92532460000001,221.9000,3.6526
2026-02-05T09:54:48.426Z,1.5081,0.4683,0.4718,-0.0537,0.0850,0.0469,28.41322653333333,76.92532460000001,221.9000,3.6526
2026-02-05T09:54:48.436Z,0.5914,1.3887,0.8893,-0.0518,0.0267,0.0139,28.41322653333333,76.92532460000001,221.9000,3.6526
2026-02-05T09:54:48.445Z,0.6474,0.0841,1.0238,-0.0335,-0.0250,0.0386,28.41322653333333,76.92532460000001,221.9000,3.6526
2026-02-05T09:54:48.456Z,0.6474,0.0841,1.0238,0.0259,-0.0009,0.0152,28.41322653333333,76.92532460000001,221.9000,3.6526
2026-02-05T09:54:48.466Z,1.4040,1.4054,1.0141,-0.0605,0.0674,0.0519,28.41322653333333,76.92532460000001,221.9000,3.6526
2026-02-05T09:54:48.476Z,0.2537,0.1192,1.0510,-0.0173,0.0210,0.0357,28.41322653333333,76.92532460000001,221.9000,3.6526
2026-02-05T09:54:48.486Z,0.4177,1.4109,2.8894,0.0761,0.0674,0.0245,28.41322653333333,76.92532460000001,221.9000,3.6526
2026-02-05T09:54:48.497Z,0.3496,0.2762,1.0480,-0.0179,0.0275,0.0308,28.41322653333333,76.92532460000001,221.9000,3.6526
2026-02-05T09:54:48.508Z,0.7262,1.6106,-0.1125,0.0191,0.0800,0.0497,28.41322653333333,76.92532460000001,221.9000,3.6526
2026-02-05T09:54:48.516Z,0.7757,1.9719,0.6697,0.0292,0.1108,0.0433,28.41322653333333,76.92532460000001,221.9000,3.6526
2026-02-05T09:54:48.526Z,1.5358,-0.4553,0.7951,0.0230,0.1197,0.0183,28.41322653333333,76.92532460000001,221.9000,3.6526
2026-02-05T09:54:48.537Z,1.2157,-1.0454,0.1565,-0.0009,0.1342,0.0314,28.41322653333333,76.92532460000001,221.9000,3.6526
2026-02-05T09:54:48.546Z,0.4611,0.8053,0.0428,-0.0185,0.1552,0.0457,28.41322653333333,76.92532460000001,221.9000,3.6526
2026-02-05T09:54:48.558Z,0.3098,1.2677,1.8044,0.0333,0.1291,-0.0017,28.41322653333333,76.92532460000001,221.9000,3.6526
2026-02-05T09:54:48.566Z,1.6568,1.2195,2.5685,0.0650,0.2114,0.0559,28.41322653333333,76.92532460000001,221.9000,3.6526
2026-02-05T09:54:48.576Z,0.7173,-0.4094,1.0499,0.0237,0.1116,0.0532,28.41322653333333,76.92532460000001,221.9000,3.6526
2026-02-05T09:54:48.588Z,0.8783,-0.3376,0.7742,0.0078,0.2990,0.0421,28.41322653333333,76.92532460000001,221.9000,3.6526
2026-02-05T09:54:48.595Z,0.8783,-0.3376,0.7742,0.0155,-0.0178,-0.0097,28.41322653333333,76.92532460000001,221.9000,3.6526
2026-02-05T09:54:48.608Z,-0.4634,0.5252,0.9372,-0.0342,0.0823,-0.0162,28.41322653333333,76.92532460000001,221.9000,3.6526
2026-02-05T09:54:48.616Z,1.1740,0.9806,1.7946,0.0533,0.1575,0.0445,28.41322653333333,76.92532460000001,221.9000,3.6526
2026-02-05T09:54:48.627Z,-0.1441,1.6282,2.0518,0.0636,0.0519,0.0100,28.41322653333333,76.92532460000001,221.9000,3.6526
2026-02-05T09:54:48.636Z,0.0728,2.0579,-0.7905,-0.0297,0.1166,0.0247,28.41322653333333,76.92532460000001,221.9000,3.6526
2026-02-05T09:54:48.646Z,-1.4357,0.8989,-0.6113,0.0642,-0.0080,0.0033,28.41322653333333,76.92532460000001,221.9000,3.6526
2026-02-05T09:54:48.657Z,-0.9099,1.0809,-0.4899,-0.0029,0.0831,0.0193,28.41322653333333,76.92532460000001,221.9000,3.6526
2026-02-05T09:54:48.666Z,-0.1186,0.0564,-0.9045,0.0252,-0.0176,-0.0318,28.41322653333333,76.92532460000001,221.9000,3.6526
2026-02-05T09:54:48.676Z,0.9041,0.1516,0.1943,0.0218,0.1882,0.0110,28.41322653333333,76.92532460000001,221.9000,3.6526
2026-02-05T09:54:48.686Z,-0.3350,0.1237,-0.3186,0.0041,-0.0114,-0.0245,28.41322653333333,76.92532460000001,221.9000,3.6526
2026-02-05T09:54:48.696Z,-0.7174,0.9266,0.8842,0.0634,0.0921,0.0099,28.41322653333333,76.92532460000001,221.9000,3.6526
2026-02-05T09:54:48.710Z,-2.5572,1.6693,0.6562,0.0388,-0.0555,0.0525,28.41322653333333,76.92532460000001,221.9000,3.6526
2026-02-05T09:54:48.716Z,-1.4808,2.9538,-0.0272,0.0599,-0.0949,-0.0060,28.41322653333333,76.92532460000001,221.9000,3.6526
2026-02-05T09:54:48.727Z,0.9193,1.0403,-0.1807,0.0457,0.1316,0.0004,28.41322653333333,76.92532460000001,221.9000,3.6526
2026-02-05T09:54:48.736Z,-0.2196,-0.9439,0.3812,0.0420,-0.0055,0.0476,28.41322653333333,76.92532460000001,221.9000,3.6526
2026-02-05T09:54:48.746Z,-2.1981,-0.0092,-0.6285,-0.0065,-0.1103,-0.0294,28.41322653333333,76.92532460000001,221.9000,3.6526
2026-02-05T09:54:48.757Z,-0.7269,1.9948,-0.7850,0.0393,0.0264,-0.0351,28.41322653333333,76.92532460000001,221.9000,3.6526
2026-02-05T09:54:48.765Z,-2.0186,2.7210,0.6233,0.1214,-0.1591,0.0021,28.41322653333333,76.92532460000001,221.9000,3.6526
2026-02-05T09:54:48.777Z,-0.6204,1.5995,-1.0431,0.0863,-0.0953,-0.0554,28.41322653333333,76.92532460000001,221.9000,3.6526
2026-02-05T09:54:48.786Z,0.9202,1.2294,-2.3939,0.1044,0.0480,0.0155,28.41322653333333,76.92532460000001,221.9000,3.6526
2026-02-05T09:54:48.796Z,-2.7585,1.9353,-2.5016,0.0854,-0.2361,0.0872,28.413193216666663,76.92533546666667,221.9000,3.9612
2026-02-05T09:54:48.808Z,-0.7543,1.7104,-2.2525,0.1567,-0.0962,-0.0633,28.413193216666663,76.92533546666667,221.9000,3.9612
2026-02-05T09:54:48.816Z,0.6005,0.0465,-2.4045,0.1415,-0.0774,0.0125,28.413193216666663,76.92533546666667,221.9000,3.9612
2026-02-05T09:54:48.826Z,-0.1934,0.2799,-3.1162,0.0786,0.0392,-0.0011,28.413193216666663,76.92533546666667,221.9000,3.9612
2026-02-05T09:54:48.836Z,-0.6819,1.2247,-1.3483,0.1238,-0.1152,-0.0163,28.413193216666663,76.92533546666667,221.9000,3.9612
2026-02-05T09:54:48.846Z,-1.8196,2.8699,-0.8380,0.1430,-0.2170,-0.0372,28.413193216666663,76.92533546666667,221.9000,3.9612
2026-02-05T09:54:48.857Z,1.1656,3.1617,-0.6185,0.1777,-0.0264,-0.1006,28.413193216666663,76.92533546666667,221.9000,3.9612
2026-02-05T09:54:48.866Z,3.1604,1.2507,-0.0019,0.1889,0.0322,-0.0971,28.413193216666663,76.92533546666667,221.9000,3.9612
2026-02-05T09:54:48.876Z,0.1156,0.6454,-1.7212,0.1282,0.0635,0.0856,28.413193216666663,76.92533546666667,221.9000,3.9612
2026-02-05T09:54:48.886Z,-2.9657,0.0023,-1.2841,0.1446,-0.1930,0.1031,28.413193216666663,76.92533546666667,221.9000,3.9612
2026-02-05T09:54:48.896Z,-1.5184,-1.1689,0.3139,0.1004,-0.1284,-0.0561,28.413193216666663,76.92533546666667,221.9000,3.9612
2026-02-05T09:54:48.907Z,1.3328,1.6089,0.6746,0.1560,0.0099,-0.0462,28.413193216666663,76.92533546666667,221.9000,3.9612
2026-02-05T09:54:48.916Z,1.7902,0.6399,1.4622,0.2060,0.0374,0.0289,28.413193216666663,76.92533546666667,221.9000,3.9612
2026-02-05T09:54:48.926Z,0.0176,1.0412,0.1321,0.0990,-0.0131,-0.0027,28.413193216666663,76.92533546666667,221.9000,3.9612
2026-02-05T09:54:48.936Z,-1.7212,2.5365,-0.6427,0.1224,-0.2245,-0.0005,28.413193216666663,76.92533546666667,221.9000,3.9612
2026-02-05T09:54:48.946Z,1.1307,1.2438,0.2367,0.1331,0.0120,-0.0886,28.413193216666663,76.92533546666667,221.9000,3.9612
2026-02-05T09:54:48.957Z,2.6006,1.0358,0.1300,0.0968,0.0581,0.0561,28.413193216666663,76.92533546666667,221.9000,3.9612
2026-02-05T09:54:48.966Z,-0.6806,-0.1662,-0.5890,0.0840,-0.0193,0.0133,28.413193216666663,76.92533546666667,221.9000,3.9612
2026-02-05T09:54:48.976Z,-0.6162,0.1468,1.2783,0.0873,0.0036,0.0015,28.413193216666663,76.92533546666667,221.9000,3.9612
2026-02-05T09:54:48.988Z,-0.6162,0.1468,1.2783,0.0873,0.0036,0.0015,28.413193216666663,76.92533546666667,221.9000,3.9612
2026-02-05T09:54:48.996Z,1.3742,0.4473,1.3899,0.0779,0.0327,-0.0907,28.413193216666663,76.92533546666667,221.9000,3.9612
2026-02-05T09:54:49.007Z,2.9835,1.9288,1.9372,0.1299,0.0056,0.0379,28.413193216666663,76.92533546666667,221.9000,3.9612
2026-02-05T09:54:49.016Z,0.3995,2.0619,0.2776,0.0784,0.1358,0.0245,28.413193216666663,76.92533546666667,221.9000,3.9612
2026-02-05T09:54:49.026Z,-1.9689,1.2012,-0.0006,0.0668,-0.2005,0.0625,28.413193216666663,76.92533546666667,221.9000,3.9612
2026-02-05T09:54:49.036Z,-1.3712,0.8986,-0.3108,-0.0536,-0.1082,-0.0445,28.413193216666663,76.92533546666667,221.9000,3.9612
2026-02-05T09:54:49.046Z,2.0319,0.9880,1.4457,0.0705,0.0344,-0.0372,28.413193216666663,76.92533546666667,221.9000,3.9612
2026-02-05T09:54:49.057Z,1.0696,-0.0140,1.9503,0.0090,0.0829,0.0501,28.413193216666663,76.92533546666667,221.9000,3.9612
2026-02-05T09:54:49.066Z,-1.0119,1.7060,0.7853,-0.0078,-0.0150,0.0224,28.413193216666663,76.92533546666667,221.9000,3.9612
2026-02-05T09:54:49.076Z,-1.8522,1.6784,1.8823,0.0286,-0.1390,0.0236,28.413193216666663,76.92533546666667,221.9000,3.9612
2026-02-05T09:54:49.086Z,0.5591,0.8348,1.6892,0.0536,0.0143,-0.0930,28.413193216666663,76.92533546666667,221.9000,3.9612
2026-02-05T09:54:49.097Z,3.2612,0.0945,0.5489,-0.0293,0.1028,-0.0013,28.413193216666663,76.92533546666667,221.9000,3.9612
2026-02-05T09:54:49.108Z,0.2710,1.6301,-1.0777,-0.0703,0.1195,0.0246,28.413193216666663,76.92533546666667,221.9000,3.9612
2026-02-05T09:54:49.116Z,-0.5211,2.2467,2.0345,0.0839,-0.0227,-0.0137,28.413193216666663,76.92533546666667,221.9000,3.9612
2026-02-05T09:54:49.126Z,-0.3013,1.1274,0.8295,-0.1001,-0.0318,-0.0329,28.413193216666663,76.92533546666667,221.9000,3.9612
2026-02-05T09:54:49.136Z,2.3892,2.3525,0.0232,-0.0263,0.1948,0.0421,28.413193216666663,76.92533546666667,221.9000,3.9612
2026-02-05T09:54:49.146Z,1.3706,-0.5647,3.0116,0.0321,0.1246,0.0085,28.413193216666663,76.92533546666667,221.9000,3.9612
2026-02-05T09:54:49.156Z,-0.7827,1.3962,0.7340,-0.0876,0.0025,0.0001,28.413193216666663,76.92533546666667,221.9000,3.9612
2026-02-05T09:54:49.166Z,-0.6390,0.4847,0.4119,-0.1104,0.0301,-0.0450,28.413193216666663,76.92533546666667,221.9000,3.9612
2026-02-05T09:54:49.176Z,-0.1207,2.1637,2.6184,0.0485,-0.0872,-0.0054,28.413193216666663,76.92533546666667,221.9000,3.9612
2026-02-05T09:54:49.186Z,2.0791,2.0112,1.5775,0.0419,0.2404,0.0430,28.413193216666663,76.92533546666667,221.9000,3.9612
2026-02-05T09:54:49.197Z,-0.3190,1.7096,-1.3278,-0.1015,-0.0659,0.0722,28.413193216666663,76.92533546666667,221.9000,3.9612
2026-02-05T09:54:49.207Z,-0.8955,0.9982,-0.4362,-0.0058,0.0395,-0.0442,28.413193216666663,76.92533546666667,221.9000,3.9612
2026-02-05T09:54:49.216Z,1.3154,-0.1155,0.9995,-0.0534,0.0746,-0.0578,28.413193216666663,76.92533546666667,221.9000,3.9612
2026-02-05T09:54:49.227Z,-1.2515,1.6589,-1.2883,-0.0773,-0.1192,-0.0056,28.413193216666663,76.92533546666667,221.9000,3.9612
2026-02-05T09:54:49.236Z,1.6515,1.1950,0.4441,-0.0684,0.1796,-0.0587,28.413193216666663,76.92533546666667,221.9000,3.9612
2026-02-05T09:54:49.246Z,0.8879,3.3224,2.0384,0.0248,-0.0226,0.0828,28.413193216666663,76.92533546666667,221.9000,3.9612
2026-02-05T09:54:49.257Z,-0.5547,1.4754,0.3291,-0.0127,0.1251,0.0307,28.413193216666663,76.92533546666667,221.9000,3.9612
2026-02-05T09:54:49.266Z,-0.4369,-0.1335,-1.5652,-0.0614,0.0166,0.0392,28.413193216666663,76.92533546666667,221.9000,3.9612
2026-02-05T09:54:49.277Z,-2.5651,0.5183,-1.2969,-0.1253,-0.0601,-0.0339,28.413193216666663,76.92533546666667,221.9000,3.9612
2026-02-05T09:54:49.286Z,-0.1573,0.7127,1.6194,-0.0375,-0.0815,-0.0519,28.413193216666663,76.92533546666667,221.9000,3.9612
2026-02-05T09:54:49.296Z,2.5393,0.5926,1.8567,-0.0435,0.1449,-0.0328,28.413193216666663,76.92533546666667,221.9000,3.9612
2026-02-05T09:54:49.307Z,0.6980,2.3980,-0.5814,-0.0298,0.1244,0.0708,28.413193216666663,76.92533546666667,221.9000,3.9612
2026-02-05T09:54:49.316Z,-2.4172,2.5816,-0.0452,0.0506,-0.0597,0.1254,28.413193216666663,76.92533546666667,221.9000,3.9612
2026-02-05T09:54:49.326Z,-2.2371,0.0284,-1.0096,-0.0788,-0.1423,-0.0464,28.413193216666663,76.92533546666667,221.9000,3.9612
2026-02-05T09:54:49.336Z,1.1428,-0.0808,-2.6973,-0.1600,-0.0229,-0.1381,28.413193216666663,76.92533546666667,221.9000,3.9612
2026-02-05T09:54:49.346Z,1.6140,0.7018,-1.2338,-0.0331,0.0595,-0.0364,28.413193216666663,76.92533546666667,221.9000,3.9612
2026-02-05T09:54:49.358Z,1.1796,2.4714,1.3052,-0.0501,0.1573,0.0153,28.413193216666663,76.92533546666667,221.9000,3.9612
2026-02-05T09:54:49.366Z,-2.1589,2.8195,0.4665,-0.1078,-0.1693,0.1325,28.413193216666663,76.92533546666667,221.9000,3.9612
2026-02-05T09:54:49.376Z,-2.2388,-0.4665,-0.2512,-0.0171,-0.1007,-0.0796,28.413193216666663,76.92533546666667,221.9000,3.9612
2026-02-05T09:54:49.386Z,2.3359,-0.5313,-0.1374,-0.1143,0.1036,-0.0413,28.413193216666663,76.92533546666667,221.9000,3.9612
2026-02-05T09:54:49.396Z,-0.1009,1.3858,-0.6325,-0.0380,-0.0935,0.0179,28.413193216666663,76.92533546666667,221.9000,3.9612
2026-02-05T09:54:49.408Z,0.8301,0.3170,0.4980,0.0313,0.1228,-0.0111,28.413193216666663,76.92533546666667,221.9000,3.9612
2026-02-05T09:54:49.416Z,-0.2744,0.8758,-1.0094,-0.0826,-0.0733,0.0380,28.413193216666663,76.92533546666667,221.9000,3.9612
2026-02-05T09:54:49.427Z,-0.2050,0.2551,-0.3933,-0.0727,0.0243,-0.0121,28.413193216666663,76.92533546666667,221.9000,3.9612
2026-02-05T09:54:49.436Z,0.7141,0.6270,0.2722,-0.1005,0.0351,0.0013,28.413193216666663,76.92533546666667,221.9000,3.9612
2026-02-05T09:54:49.446Z,-1.9336,3.7710,-0.7463,-0.0811,-0.1037,0.0210,28.413193216666663,76.92533546666667,221.9000,3.9612
2026-02-05T09:54:49.456Z,0.6540,0.7372,1.3066,-0.0214,0.0883,-0.0041,28.413193216666663,76.92533546666667,221.9000,3.9612
2026-02-05T09:54:49.466Z,1.1461,-0.2176,1.0126,-0.0435,-0.0673,-0.0291,28.413193216666663,76.92533546666667,221.9000,3.9612
2026-02-05T09:54:49.476Z,0.2487,-1.3305,-0.4883,-0.0931,0.1366,0.0307,28.413193216666663,76.92533546666667,221.9000,3.9612
2026-02-05T09:54:49.486Z,-1.3055,0.0047,0.7030,-0.0889,-0.0830,0.0314,28.413193216666663,76.92533546666667,221.9000,3.9612
2026-02-05T09:54:49.496Z,-1.5122,1.7944,1.4355,-0.0554,-0.0092,-0.0259,28.413193216666663,76.92533546666667,221.9000,3.9612
2026-02-05T09:54:49.506Z,-0.8210,1.6324,1.0944,-0.0104,-0.0644,-0.0073,28.413193216666663,76.92533546666667,221.9000,3.9612
2026-02-05T09:54:49.516Z,0.4506,1.3240,-0.4766,-0.0890,0.0016,-0.0230,28.413193216666663,76.92533546666667,221.9000,3.9612
2026-02-05T09:54:49.528Z,1.0981,1.4639,-0.7974,-0.0574,0.0381,0.0320,28.413193216666663,76.92533546666667,221.9000,3.9612
2026-02-05T09:54:49.536Z,-0.8723,-0.1366,-0.7521,-0.0546,-0.0613,0.0131,28.413193216666663,76.92533546666667,221.9000,3.9612
2026-02-05T09:54:49.546Z,-1.4678,0.4635,-1.8678,-0.1322,-0.0900,0.0310,28.413193216666663,76.92533546666667,221.9000,3.9612
2026-02-05T09:54:49.556Z,-1.1611,0.3292,-0.1954,-0.0112,-0.1666,-0.0595,28.413193216666663,76.92533546666667,221.9000,3.9612
2026-02-05T09:54:49.566Z,0.3815,0.7763,1.5442,-0.0192,-0.0106,0.0582,28.413193216666663,76.92533546666667,221.9000,3.9612
2026-02-05T09:54:49.576Z,-0.3005,1.6988,-0.6252,-0.0782,-0.1094,-0.0090,28.413193216666663,76.92533546666667,221.9000,3.9612
2026-02-05T09:54:49.586Z,-0.2955,0.7373,-0.3021,-0.0316,-0.0548,0.0227,28.413193216666663,76.92533546666667,221.9000,3.9612
2026-02-05T09:54:49.596Z,-1.2831,-0.2665,1.1382,0.0217,-0.1958,-0.0246,28.413193216666663,76.92533546666667,221.9000,3.9612
2026-02-05T09:54:49.606Z,0.5792,1.2785,-0.9021,-0.1153,-0.0353,-0.0365,28.413193216666663,76.92533546666667,221.9000,3.9612
2026-02-05T09:54:49.616Z,0.0739,1.0883,-0.2660,0.0012,-0.1178,0.0533,28.413193216666663,76.92533546666667,221.9000,3.9612
2026-02-05T09:54:49.626Z,0.0378,0.3181,1.6507,0.0060,-0.0094,0.0064,28.413193216666663,76.92533546666667,221.9000,3.9612
2026-02-05T09:54:49.636Z,0.2762,-0.4081,-0.2942,-0.0384,-0.0821,-0.0206,28.413193216666663,76.92533546666667,221.9000,3.9612
2026-02-05T09:54:49.646Z,-1.5185,-0.1939,-1.1191,-0.1227,-0.1514,0.0172,28.413193216666663,76.92533546666667,221.9000,3.9612
2026-02-05T09:54:49.656Z,0.4881,1.8648,0.5116,-0.0004,-0.0006,-0.0152,28.413193216666663,76.92533546666667,221.9000,3.9612
2026-02-05T09:54:49.666Z,1.0514,1.6126,1.1551,0.0401,-0.0127,-0.0128,28.413193216666663,76.92533546666667,221.9000,3.9612
2026-02-05T09:54:49.676Z,-0.5731,0.8758,-1.3382,-0.0832,-0.0348,0.0814,28.413193216666663,76.92533546666667,221.9000,3.9612
2026-02-05T09:54:49.686Z,0.0103,-1.0588,-0.9054,-0.0448,-0.0376,-0.0352,28.413193216666663,76.92533546666667,221.9000,3.9612
2026-02-05T09:54:49.696Z,0.5440,-0.0741,0.8294,-0.0457,-0.0918,0.0031,28.413193216666663,76.92533546666667,221.9000,3.9612
2026-02-05T09:54:49.706Z,0.7469,0.7762,-0.1955,-0.0243,0.0692,0.0155,28.413193216666663,76.92533546666667,221.9000,3.9612
2026-02-05T09:54:49.715Z,1.0937,0.4195,0.0399,-0.0456,-0.0318,-0.0041,28.413193216666663,76.92533546666667,221.9000,3.9612
2026-02-05T09:54:49.726Z,0.4337,0.0537,0.2988,-0.0325,0.0678,0.0147,28.413193216666663,76.92533546666667,221.9000,3.9612
2026-02-05T09:54:49.736Z,0.0719,0.1062,0.5409,0.0351,-0.0197,-0.0263,28.413193216666663,76.92533546666667,221.9000,3.9612
2026-02-05T09:54:49.745Z,0.7293,-0.5150,-0.4177,-0.0590,0.0224,0.0168,28.413193216666663,76.92533546666667,221.9000,3.9612
2026-02-05T09:54:49.756Z,0.5356,1.3891,-1.1934,-0.0318,0.0607,0.0073,28.413193216666663,76.92533546666667,221.9000,3.9612
2026-02-05T09:54:49.765Z,1.3196,0.3158,0.9204,0.0631,0.0496,-0.0260,28.413193216666663,76.92533546666667,221.9000,3.9612
2026-02-05T09:54:49.776Z,0.1412,0.8648,-0.0219,0.0082,0.0115,0.0171,28.413193216666663,76.92533546666667,221.9000,3.9612
2026-02-05T09:54:49.786Z,-0.2243,-0.0079,-1.6652,-0.0611,0.0303,0.0274,28.413193216666663,76.92533546666667,221.9000,3.9612
2026-02-05T09:54:49.795Z,-0.2243,-0.0079,-1.6652,0.0125,0.0728,-0.0312,28.413193216666663,76.92533546666667,221.9000,3.9612
2026-02-05T09:54:49.805Z,0.9045,0.5554,1.6921,-0.0005,0.0992,0.0363,28.41314824346425,76.92533050254943,221.8000,4.9901
2026-02-05T09:54:49.816Z,-1.2699,0.1302,0.1777,0.0315,-0.0631,-0.0023,28.41314824346425,76.92533050254943,221.8000,4.9901
2026-02-05T09:54:49.826Z,0.3127,0.5477,-0.6154,0.0395,0.0468,-0.0194,28.41314824346425,76.92533050254943,221.8000,4.9901
2026-02-05T09:54:49.836Z,1.5966,-0.0821,-0.1063,0.0634,0.0754,0.0110,28.41314824346425,76.92533050254943,221.8000,4.9901
2026-02-05T09:54:49.845Z,0.9429,-0.3850,-0.2622,0.0838,0.0450,-0.0332,28.41314824346425,76.92533050254943,221.8000,4.9901
2026-02-05T09:54:49.856Z,0.2088,1.2188,-1.8495,-0.0532,0.1610,0.0276,28.41314824346425,76.92533050254943,221.8000,4.9901
2026-02-05T09:54:49.866Z,-2.5880,0.9976,-0.2333,0.0531,-0.2038,-0.0096,28.41314824346425,76.92533050254943,221.8000,4.9901
2026-02-05T09:54:49.876Z,1.4006,0.1845,1.5415,0.0677,0.2060,-0.0352,28.41314824346425,76.92533050254943,221.8000,4.9901
2026-02-05T09:54:49.886Z,1.4128,-0.4630,0.3656,-0.0067,0.0849,0.0562,28.41314824346425,76.92533050254943,221.8000,4.9901
2026-02-05T09:54:49.896Z,-1.3364,-0.7913,0.5862,-0.0197,0.0159,0.0121,28.41314824346425,76.92533050254943,221.8000,4.9901
2026-02-05T09:54:49.906Z,-0.1581,-0.6911,1.7746,0.0935,0.0081,-0.0202,28.41314824346425,76.92533050254943,221.8000,4.9901
2026-02-05T09:54:49.916Z,0.3097,1.0545,0.7037,0.0070,0.0991,0.0010,28.41314824346425,76.92533050254943,221.8000,4.9901
2026-02-05T09:54:49.926Z,0.0513,0.8941,0.1001,0.1111,0.0105,0.0038,28.41314824346425,76.92533050254943,221.8000,4.9901
2026-02-05T09:54:49.936Z,0.8184,0.3931,0.4214,0.0378,0.1524,-0.0109,28.41314824346425,76.92533050254943,221.8000,4.9901
2026-02-05T09:54:49.945Z,-1.3995,1.7269,-1.0279,-0.0025,-0.1113,0.0470,28.41314824346425,76.92533050254943,221.8000,4.9901
2026-02-05T09:54:49.956Z,0.0332,-0.2611,0.1967,0.0708,0.0978,-0.0327,28.41314824346425,76.92533050254943,221.8000,4.9901
2026-02-05T09:54:49.966Z,1.0478,0.0915,-0.0348,-0.0122,0.0525,0.0299,28.41314824346425,76.92533050254943,221.8000,4.9901
2026-02-05T09:54:49.975Z,-1.7755,1.4592,-0.9916,-0.0402,-0.0230,-0.0011,28.41314824346425,76.92533050254943,221.8000,4.9901
2026-02-05T09:54:49.985Z,0.1971,-0.7066,1.3407,0.0960,0.0626,-0.0332,28.41314824346425,76.92533050254943,221.8000,4.9901
2026-02-05T09:54:49.995Z,-1.1988,0.7895,0.4309,0.0361,-0.0722,0.0365,28.41314824346425,76.92533050254943,221.8000,4.9901
2026-02-05T09:54:50.007Z,-0.3435,-0.1068,-0.8900,-0.0070,0.0547,-0.0365,28.41314824346425,76.92533050254943,221.8000,4.9901
2026-02-05T09:54:50.016Z,0.4623,0.2690,2.0974,0.0540,-0.0819,-0.0011,28.41314824346425,76.92533050254943,221.8000,4.9901
2026-02-05T09:54:50.026Z,-1.3964,1.5070,1.3528,0.0488,-0.0120,-0.0279,28.41314824346425,76.92533050254943,221.8000,4.9901
2026-02-05T09:54:50.036Z,-1.0270,1.2670,-0.9670,0.0101,-0.1001,-0.0116,28.41314824346425,76.92533050254943,221.8000,4.9901
2026-02-05T09:54:50.046Z,-0.5531,-0.0998,-0.7736,0.0065,-0.0696,-0.0486,28.41314824346425,76.92533050254943,221.8000,4.9901
2026-02-05T09:54:50.056Z,0.5771,1.2167,0.2773,0.0386,0.0589,0.0052,28.41314824346425,76.92533050254943,221.8000,4.9901
2026-02-05T09:54:50.066Z,-1.7836,-0.1042,-0.6566,0.0479,-0.1663,0.0024,28.41314824346425,76.92533050254943,221.8000,4.9901
2026-02-05T09:54:50.076Z,-1.1919,0.9694,-1.1690,-0.0531,-0.0760,-0.0334,28.41314824346425,76.92533050254943,221.8000,4.9901
2026-02-05T09:54:50.086Z,0.4376,1.1163,0.5059,0.0198,-0.0849,-0.0174,28.41314824346425,76.92533050254943,221.8000,4.9901
2026-02-05T09:54:50.096Z,0.8795,-0.0871,1.7555,0.0765,-0.0660,-0.0253,28.41314824346425,76.92533050254943,221.8000,4.9901
2026-02-05T09:54:50.106Z,0.5455,0.8418,-0.9797,-0.0362,0.0213,-0.0094,28.41314824346425,76.92533050254943,221.8000,4.9901
2026-02-05T09:54:50.116Z,-1.7738,1.3783,-1.0671,-0.0137,-0.1905,-0.0219,28.41314824346425,76.92533050254943,221.8000,4.9901
2026-02-05T09:54:50.126Z,0.1550,0.0951,1.1885,0.1241,-0.0591,-0.0533,28.41314824346425,76.92533050254943,221.8000,4.9901
2026-02-05T09:54:50.136Z,1.1597,0.8676,-1.0824,-0.0577,-0.0202,0.0175,28.41314824346425,76.92533050254943,221.8000,4.9901
2026-02-05T09:54:50.146Z,-0.1496,0.0679,-2.0735,-0.0282,0.0172,-0.0169,28.41314824346425,76.92533050254943,221.8000,4.9901
2026-02-05T09:54:50.156Z,-0.7330,0.5768,1.1926,0.0418,-0.1622,-0.0386,28.41314824346425,76.92533050254943,221.8000,4.9901
2026-02-05T09:54:50.166Z,-0.0424,1.4529,0.1481,-0.0096,-0.0594,-0.0259,28.41314824346425,76.92533050254943,221.8000,4.9901
2026-02-05T09:54:50.176Z,1.5927,0.6125,-1.2499,-0.0411,-0.0020,0.0130,28.41314824346425,76.92533050254943,221.8000,4.9901
2026-02-05T09:54:50.186Z,0.8932,-0.7364,0.1422,-0.0053,0.0687,-0.0004,28.41314824346425,76.92533050254943,221.8000,4.9901
2026-02-05T09:54:50.196Z,-1.7200,0.7650,0.2294,-0.0130,-0.1247,0.0248,28.41314824346425,76.92533050254943,221.8000,4.9901
2026-02-05T09:54:50.207Z,-1.0131,0.0162,0.1761,-0.0466,-0.1033,-0.0419,28.41314824346425,76.92533050254943,221.8000,4.9901
2026-02-05T09:54:50.215Z,1.6036,1.7389,0.0968,-0.0919,-0.0495,-0.0847,28.41314824346425,76.92533050254943,221.8000,4.9901
2026-02-05T09:54:50.225Z,2.6888,1.0071,0.5344,0.0140,0.1549,0.0283,28.41314824346425,76.92533050254943,221.8000,4.9901
2026-02-05T09:54:50.236Z,0.0471,-0.4636,0.1410,-0.0344,-0.0392,0.0049,28.41314824346425,76.92533050254943,221.8000,4.9901
2026-02-05T09:54:50.246Z,-0.7543,-0.2089,-1.0321,-0.0678,-0.0062,-0.0101,28.41314824346425,76.92533050254943,221.8000,4.9901
2026-02-05T09:54:50.256Z,-0.4810,-0.3218,0.3312,-0.0943,-0.0518,0.0036,28.41314824346425,76.92533050254943,221.8000,4.9901
2026-02-05T09:54:50.266Z,1.4922,-0.1433,1.4513,-0.0446,0.0361,0.0049,28.41314824346425,76.92533050254943,221.8000,4.9901
2026-02-05T09:54:50.276Z,1.8260,0.5512,0.9145,-0.0220,0.1362,0.0216,28.41314824346425,76.92533050254943,221.8000,4.9901
2026-02-05T09:54:50.285Z,-0.6676,0.8890,-0.0942,-0.1045,-0.0193,0.0554,28.41314824346425,76.92533050254943,221.8000,4.9901
2026-02-05T09:54:50.296Z,-0.8517,1.6404,-0.7660,-0.0999,-0.0321,-0.0350,28.41314824346425,76.92533050254943,221.8000,4.9901
2026-02-05T09:54:50.306Z,1.1788,0.4966,-0.0937,-0.0342,0.0554,-0.0050,28.41314824346425,76.92533050254943,221.8000,4.9901
2026-02-05T09:54:50.315Z,0.2335,0.3334,-1.0978,-0.1061,0.0181,0.0479,28.41314824346425,76.92533050254943,221.8000,4.9901
2026-02-05T09:54:50.325Z,1.3908,-0.0041,-0.2408,-0.0720,0.1423,0.0147,28.41314824346425,76.92533050254943,221.8000,4.9901
2026-02-05T09:54:50.336Z,-0.3066,-1.0585,0.1570,-0.0776,0.0300,0.0034,28.41314824346425,76.92533050254943,221.8000,4.9901
2026-02-05T09:54:50.346Z,-1.4849,-0.3255,0.9417,-0.0621,-0.0546,-0.0092,28.41314824346425,76.92533050254943,221.8000,4.9901
2026-02-05T09:54:50.355Z,1.2029,0.8306,1.6932,-0.0522,0.0965,0.0258,28.41314824346425,76.92533050254943,221.8000,4.9901
2026-02-05T09:54:50.366Z,0.9156,0.5809,1.2296,0.0060,0.0222,-0.0056,28.41314824346425,76.92533050254943,221.8000,4.9901
2026-02-05T09:54:50.376Z,1.0744,0.7978,0.0035,-0.1096,0.1735,0.0192,28.41314824346425,76.92533050254943,221.8000,4.9901
2026-02-05T09:54:50.386Z,-1.1489,1.0131,-0.5663,-0.0372,-0.1208,0.0144,28.41314824346425,76.92533050254943,221.8000,4.9901
2026-02-05T09:54:50.396Z,0.6805,0.0387,-0.0477,-0.0327,0.2400,-0.0145,28.41314824346425,76.92533050254943,221.8000,4.9901
2026-02-05T09:54:50.406Z,-0.3788,0.4978,-0.6188,-0.0725,-0.1111,0.0094,28.41314824346425,76.92533050254943,221.8000,4.9901
2026-02-05T09:54:50.416Z,1.0028,-1.3094,0.2880,-0.0538,0.2885,0.0108,28.41314824346425,76.92533050254943,221.8000,4.9901
2026-02-05T09:54:50.426Z,-0.1845,0.0897,0.4029,-0.0486,-0.0592,0.0232,28.41314824346425,76.92533050254943,221.8000,4.9901
2026-02-05T09:54:50.436Z,-0.7597,1.9261,-0.0587,-0.0223,0.1478,0.0003,28.41314824346425,76.92533050254943,221.8000,4.9901
2026-02-05T09:54:50.446Z,0.6499,0.0262,0.6616,-0.0051,-0.0414,0.0224,28.41314824346425,76.92533050254943,221.8000,4.9901
2026-02-05T09:54:50.456Z,0.2715,0.6039,-1.3957,-0.0754,0.1297,-0.0331,28.41314824346425,76.92533050254943,221.8000,4.9901
2026-02-05T09:54:50.466Z,0.7851,-0.4019,0.3900,-0.0082,0.0893,0.0178,28.41314824346425,76.92533050254943,221.8000,4.9901
2026-02-05T09:54:50.476Z,-1.5423,0.8403,1.5861,0.0132,-0.0792,0.0148,28.41314824346425,76.92533050254943,221.8000,4.9901
2026-02-05T09:54:50.486Z,-0.3470,0.7257,-0.7481,-0.0733,0.0788,-0.0141,28.41314824346425,76.92533050254943,221.8000,4.9901
2026-02-05T09:54:50.496Z,0.4996,-1.1568,0.5636,0.0038,0.0507,0.0287,28.41314824346425,76.92533050254943,221.8000,4.9901
2026-02-05T09:54:50.506Z,-0.9587,-0.4693,1.2447,0.0086,-0.0562,0.0017,28.41314824346425,76.92533050254943,221.8000,4.9901
2026-02-05T09:54:50.516Z,0.2020,0.5476,-0.5107,-0.0192,0.1142,-0.0398,28.41314824346425,76.92533050254943,221.8000,4.9901
2026-02-05T09:54:50.526Z,-0.8020,1.5350,0.4652,-0.0261,-0.1100,0.0221,28.41314824346425,76.92533050254943,221.8000,4.9901
2026-02-05T09:54:50.536Z,-0.4358,2.1921,0.1942,0.0127,0.0366,-0.0126,28.41314824346425,76.92533050254943,221.8000,4.9901
2026-02-05T09:54:50.546Z,1.2074,-0.6957,-0.3010,0.0752,0.0725,-0.0117,28.41314824346425,76.92533050254943,221.8000,4.9901
2026-02-05T09:54:50.556Z,-1.1827,-2.0309,-1.0694,-0.0515,0.0205,0.0974,28.41314824346425,76.92533050254943,221.8000,4.9901
2026-02-05T09:54:50.566Z,-1.9216,0.8131,-0.4695,-0.0213,-0.1336,-0.0543,28.41314824346425,76.92533050254943,221.8000,4.9901
2026-02-05T09:54:50.576Z,1.2624,0.1399,2.2868,0.1381,0.0730,0.0010,28.41314824346425,76.92533050254943,221.8000,4.9901
2026-02-05T09:54:50.586Z,0.6548,0.1619,0.2727,-0.0292,-0.0138,0.0405,28.41314824346425,76.92533050254943,221.8000,4.9901
2026-02-05T09:54:50.596Z,-0.2268,0.7715,-2.0075,-0.0135,0.0580,0.0365,28.41314824346425,76.92533050254943,221.8000,4.9901
2026-02-05T09:54:50.606Z,-2.4071,-0.4221,0.5894,0.1132,-0.2053,-0.0287,28.41314824346425,76.92533050254943,221.8000,4.9901
2026-02-05T09:54:50.616Z,-0.4921,1.8430,0.5335,0.0109,0.0567,0.0053,28.41314824346425,76.92533050254943,221.8000,4.9901
2026-02-05T09:54:50.625Z,-0.8813,2.0934,-0.7503,0.0210,-0.1700,0.0377,28.41314824346425,76.92533050254943,221.8000,4.9901
2026-02-05T09:54:50.637Z,1.1524,-1.1944,0.6093,0.1123,0.0785,-0.0244,28.41314824346425,76.92533050254943,221.8000,4.9901
2026-02-05T09:54:50.646Z,0.5490,-0.4666,-0.3907,0.0102,0.0483,0.0577,28.41314824346425,76.92533050254943,221.8000,4.9901
2026-02-05T09:54:50.656Z,-3.2034,0.1669,-1.3395,0.0369,-0.1954,0.0006,28.41314824346425,76.92533050254943,221.8000,4.9901
2026-02-05T09:54:50.666Z,0.6264,0.2563,0.8649,0.1093,0.0402,-0.0584,28.41314824346425,76.92533050254943,221.8000,4.9901
2026-02-05T09:54:50.675Z,0.7414,0.2568,-0.1758,-0.0381,-0.0042,0.0625,28.41314824346425,76.92533050254943,221.8000,4.9901
2026-02-05T09:54:50.686Z,-1.2298,-0.4686,-0.6932,0.0450,0.0003,-0.0320,28.41314824346425,76.92533050254943,221.8000,4.9901
2026-02-05T09:54:50.696Z,-0.7953,-0.1381,1.9090,0.0942,-0.1317,0.0215,28.41314824346425,76.92533050254943,221.8000,4.9901
2026-02-05T09:54:50.706Z,-0.7587,1.7279,0.0152,-0.0210,-0.0602,-0.0191,28.41314824346425,76.92533050254943,221.8000,4.9901
2026-02-05T09:54:50.716Z,0.7221,1.3488,-0.4125,0.0598,-0.0003,0.0044,28.41314824346425,76.92533050254943,221.8000,4.9901
2026-02-05T09:54:50.725Z,0.1050,-0.1032,1.1223,0.0878,0.0005,0.0023,28.41314824346425,76.92533050254943,221.8000,4.9901
2026-02-05T09:54:50.737Z,-0.1676,0.2725,-0.2798,0.0502,-0.0883,0.0129,28.41314824346425,76.92533050254943,221.8000,4.9901
2026-02-05T09:54:50.746Z,-1.2314,-0.8865,-1.4496,-0.0367,-0.0638,0.0151,28.41314824346425,76.92533050254943,221.8000,4.9901
2026-02-05T09:54:50.756Z,-0.2811,-0.2536,1.1205,0.0478,-0.0828,-0.0509,28.41314824346425,76.92533050254943,221.8000,4.9901
2026-02-05T09:54:50.766Z,0.9326,0.4443,1.7734,0.0608,-0.1072,0.0153,28.41314824346425,76.92533050254943,221.8000,4.9901
2026-02-05T09:54:50.775Z,0.9362,1.1760,-0.9195,-0.0353,0.0564,0.0354,28.41314824346425,76.92533050254943,221.8000,4.9901
2026-02-05T09:54:50.788Z,0.3190,1.9994,-0.2918,0.0866,0.0268,0.0259,28.41314824346425,76.92533050254943,221.8000,4.9901
2026-02-05T09:54:50.796Z,-0.9742,0.0181,-0.0925,0.0182,-0.0461,-0.0097,28.41310176392277,76.92534694706028,221.8000,5.7103
2026-02-05T09:54:50.806Z,-1.1086,0.6221,-2.3252,-0.0789,-0.0582,-0.0182,28.41310176392277,76.92534694706028,221.8000,5.7103
2026-02-05T09:54:50.816Z,1.2429,0.2670,0.1174,-0.0041,0.0966,0.0824,28.41310176392277,76.92534694706028,221.8000,5.7103
2026-02-05T09:54:50.825Z,0.5966,0.2598,0.8311,0.0198,-0.0203,-0.0164,28.41310176392277,76.92534694706028,221.8000,5.7103
2026-02-05T09:54:50.838Z,2.1961,-1.2500,0.5113,-0.0111,0.1626,0.0099,28.41310176392277,76.92534694706028,221.8000,5.7103
2026-02-05T09:54:50.846Z,0.0188,-0.8857,0.4323,-0.0837,0.0146,0.0293,28.41310176392277,76.92534694706028,221.8000,5.7103
2026-02-05T09:54:50.856Z,-0.2940,0.7643,1.1667,0.0472,-0.0195,0.0103,28.41310176392277,76.92534694706028,221.8000,5.7103
2026-02-05T09:54:50.866Z,1.1232,2.3394,-0.2466,-0.0110,0.1055,-0.0141,28.41310176392277,76.92534694706028,221.8000,5.7103
2026-02-05T09:54:50.875Z,0.7494,3.1935,-2.4535,-0.0681,0.0591,0.0157,28.41310176392277,76.92534694706028,221.8000,5.7103
2026-02-05T09:54:50.887Z,0.8133,0.0875,-1.3636,0.0121,0.1479,0.0002,28.41310176392277,76.92534694706028,221.8000,5.7103
2026-02-05T09:54:50.895Z,-0.5333,-1.7247,-1.0327,-0.1345,0.0272,0.0700,28.41310176392277,76.92534694706028,221.8000,5.7103
2026-02-05T09:54:50.906Z,-0.9715,-0.1765,-1.8648,-0.1426,0.0443,-0.0262,28.41310176392277,76.92534694706028,221.8000,5.7103
2026-02-05T09:54:50.916Z,1.2678,-0.0215,3.3626,0.0504,0.0526,0.0623,28.41310176392277,76.92534694706028,221.8000,5.7103
2026-02-05T09:54:50.926Z,0.3826,1.0892,2.1154,-0.0141,0.1078,0.0135,28.41310176392277,76.92534694706028,221.8000,5.7103
2026-02-05T09:54:50.938Z,0.3837,-0.3091,-0.5324,-0.0512,0.0526,0.0106,28.41310176392277,76.92534694706028,221.8000,5.7103
2026-02-05T09:54:50.946Z,-1.5844,-0.7109,-0.7334,-0.0310,-0.0639,0.0573,28.41310176392277,76.92534694706028,221.8000,5.7103
2026-02-05T09:54:50.956Z,0.7083,1.2867,-0.4267,-0.0365,0.0616,-0.0650,28.41310176392277,76.92534694706028,221.8000,5.7103
2026-02-05T09:54:50.966Z,2.1315,1.2043,-0.0788,-0.0844,0.1929,0.0496,28.41310176392277,76.92534694706028,221.8000,5.7103
2026-02-05T09:54:50.976Z,-1.8909,1.0461,-0.5668,-0.0324,-0.0945,0.0366,28.41310176392277,76.92534694706028,221.8000,5.7103
2026-02-05T09:54:50.987Z,-0.7129,-0.8536,-0.4844,-0.0509,0.1139,-0.0075,28.41310176392277,76.92534694706028,221.8000,5.7103
2026-02-05T09:54:50.996Z,-0.6287,-0.8292,-0.1209,-0.1369,-0.1225,-0.0037,28.41310176392277,76.92534694706028,221.8000,5.7103
2026-02-05T09:54:51.006Z,1.3981,0.2815,1.0740,-0.0809,0.2689,0.0281,28.41310176392277,76.92534694706028,221.8000,5.7103
2026-02-05T09:54:51.016Z,-1.6284,0.5501,2.1072,0.0283,-0.1551,0.0661,28.41310176392277,76.92534694706028,221.8000,5.7103
2026-02-05T09:54:51.026Z,-1.9633,-0.8701,0.6700,-0.0055,0.0830,0.0233,28.41310176392277,76.92534694706028,221.8000,5.7103
2026-02-05T09:54:51.038Z,-1.3537,-0.7448,-0.1899,-0.0569,-0.2498,0.0081,28.41310176392277,76.92534694706028,221.8000,5.7103
2026-02-05T09:54:51.046Z,1.0025,-0.1405,0.1207,-0.0468,0.1042,-0.0198,28.41310176392277,76.92534694706028,221.8000,5.7103
2026-02-05T09:54:51.056Z,1.5768,1.0535,0.1776,-0.0431,0.0471,0.0872,28.41310176392277,76.92534694706028,221.8000,5.7103
2026-02-05T09:54:51.066Z,-2.1150,0.4594,-0.5981,0.0089,-0.1165,0.0709,28.41310176392277,76.92534694706028,221.8000,5.7103
2026-02-05T09:54:51.076Z,-1.0217,-0.1965,-1.2306,-0.0682,-0.0383,-0.0638,28.41310176392277,76.92534694706028,221.8000,5.7103
2026-02-05T09:54:51.087Z,-1.2483,0.5679,-0.8104,-0.0795,-0.2613,0.0016,28.41310176392277,76.92534694706028,221.8000,5.7103
2026-02-05T09:54:51.100Z,2.7554,-0.3149,1.9944,0.0224,0.1784,-0.1000,28.41310176392277,76.92534694706028,221.8000,5.7103
2026-02-05T09:54:51.106Z,1.5807,-1.3101,0.9318,-0.0512,0.0542,0.1275,28.41310176392277,76.92534694706028,221.8000,5.7103
2026-02-05T09:54:51.116Z,-3.7186,0.0445,0.6139,-0.0094,-0.0874,0.1139,28.41310176392277,76.92534694706028,221.8000,5.7103
2026-02-05T09:54:51.126Z,-1.8114,-0.2577,2.9746,0.0287,-0.1466,-0.0240,28.41310176392277,76.92534694706028,221.8000,5.7103
2026-02-05T09:54:51.137Z,-1.4308,1.4519,0.2392,0.0516,-0.1575,-0.0714,28.41310176392277,76.92534694706028,221.8000,5.7103
2026-02-05T09:54:51.146Z,2.1181,-0.6149,-0.1784,-0.0077,0.1480,0.0303,28.41310176392277,76.92534694706028,221.8000,5.7103
2026-02-05T09:54:51.156Z,0.4581,-1.5089,0.5117,0.0091,-0.0987,0.0358,28.41310176392277,76.92534694706028,221.8000,5.7103
2026-02-05T09:54:51.166Z,-1.3234,1.0744,-0.2851,-0.0274,-0.0374,-0.0058,28.41310176392277,76.92534694706028,221.8000,5.7103
2026-02-05T09:54:51.176Z,-0.9981,0.9773,-0.4367,-0.0223,-0.1665,-0.0269,28.41310176392277,76.92534694706028,221.8000,5.7103
2026-02-05T09:54:51.187Z,1.1323,-0.1502,1.0214,-0.0047,-0.0308,-0.1013,28.41310176392277,76.92534694706028,221.8000,5.7103
2026-02-05T09:54:51.196Z,1.9679,-1.1523,1.8081,0.0790,0.0860,0.0638,28.41310176392277,76.92534694706028,221.8000,5.7103
2026-02-05T09:54:51.205Z,-0.0867,0.0214,-0.0279,0.0557,0.0473,0.0431,28.41310176392277,76.92534694706028,221.8000,5.7103
2026-02-05T09:54:51.216Z,-1.0131,1.1717,-0.6374,0.0466,0.0496,0.0246,28.41310176392277,76.92534694706028,221.8000,5.7103
2026-02-05T09:54:51.226Z,-1.7387,0.0149,0.5502,0.0762,-0.1346,-0.0258,28.41310176392277,76.92534694706028,221.8000,5.7103
2026-02-05T09:54:51.236Z,0.3883,-0.7352,-1.2540,-0.0033,-0.0362,-0.1106,28.41310176392277,76.92534694706028,221.8000,5.7103
2026-02-05T09:54:51.246Z,2.7377,0.1367,-0.3991,0.0984,0.1658,-0.0011,28.41310176392277,76.92534694706028,221.8000,5.7103
2026-02-05T09:54:51.255Z,1.3231,-1.1030,2.1131,0.1519,-0.0137,-0.0225,28.41310176392277,76.92534694706028,221.8000,5.7103
2026-02-05T09:54:51.266Z,0.6929,1.2759,-0.7654,-0.0733,0.1423,0.0284,28.41310176392277,76.92534694706028,221.8000,5.7103
2026-02-05T09:54:51.276Z,-1.2912,1.0951,0.1199,0.1263,-0.0729,0.0174,28.41310176392277,76.92534694706028,221.8000,5.7103
2026-02-05T09:54:51.287Z,0.7668,-1.6771,2.2134,0.1530,0.1168,0.0101,28.41310176392277,76.92534694706028,221.8000,5.7103
2026-02-05T09:54:51.296Z,0.4794,1.8580,-2.8281,-0.0299,-0.0064,0.0219,28.41310176392277,76.92534694706028,221.8000,5.7103
2026-02-05T09:54:51.305Z,2.0061,0.6871,-0.9993,0.1122,0.2502,-0.0465,28.41310176392277,76.92534694706028,221.8000,5.7103
2026-02-05T09:54:51.316Z,0.6564,-1.1926,2.3582,0.1064,0.0167,0.0643,28.41310176392277,76.92534694706028,221.8000,5.7103
2026-02-05T09:54:51.326Z,-1.4570,-0.7977,-1.2952,0.0450,-0.0288,0.0508,28.41310176392277,76.92534694706028,221.8000,5.7103
2026-02-05T09:54:51.337Z,0.5484,-0.4885,-1.6243,0.1164,0.0632,-0.0613,28.41310176392277,76.92534694706028,221.8000,5.7103
2026-02-05T09:54:51.346Z,0.5617,1.2743,1.0369,0.0505,0.0362,0.0241,28.41310176392277,76.92534694706028,221.8000,5.7103
2026-02-05T09:54:51.355Z,-1.0077,1.8250,-0.1944,0.0673,-0.0043,-0.0011,28.41310176392277,76.92534694706028,221.8000,5.7103
2026-02-05T09:54:51.366Z,-0.3815,0.1220,-1.7285,0.0219,-0.0452,0.0613,28.41310176392277,76.92534694706028,221.8000,5.7103
2026-02-05T09:54:51.376Z,0.6264,-1.1737,-0.7586,0.0223,0.1164,-0.0082,28.41310176392277,76.92534694706028,221.8000,5.7103
2026-02-05T09:54:51.387Z,0.8094,-1.5177,1.3295,-0.0622,0.0354,0.0630,28.41310176392277,76.92534694706028,221.8000,5.7103
2026-02-05T09:54:51.396Z,-1.4666,0.8570,-0.4802,-0.0425,0.0144,-0.0441,28.41310176392277,76.92534694706028,221.8000,5.7103
2026-02-05T09:54:51.406Z,-0.3530,1.1705,2.4378,0.1857,-0.0036,0.0315,28.41310176392277,76.92534694706028,221.8000,5.7103
2026-02-05T09:54:51.416Z,-0.3501,1.0050,1.4863,0.1363,-0.0353,-0.0253,28.41310176392277,76.92534694706028,221.8000,5.7103
2026-02-05T09:54:51.426Z,1.0066,-1.3848,-3.1039,-0.0416,0.0926,0.0012,28.41310176392277,76.92534694706028,221.8000,5.7103
2026-02-05T09:54:51.437Z,-1.0031,-1.2080,-2.2610,-0.0453,-0.0187,0.1269,28.41310176392277,76.92534694706028,221.8000,5.7103
2026-02-05T09:54:51.446Z,-1.6503,1.3357,0.5082,0.0223,0.0639,-0.0106,28.41310176392277,76.92534694706028,221.8000,5.7103
2026-02-05T09:54:51.456Z,-1.4870,2.5768,0.3987,0.0359,-0.1351,0.0561,28.41310176392277,76.92534694706028,221.8000,5.7103
2026-02-05T09:54:51.466Z,-1.1554,-0.3776,-0.7786,-0.1096,-0.0406,-0.0479,28.41310176392277,76.92534694706028,221.8000,5.7103
2026-02-05T09:54:51.476Z,1.7576,-1.8095,0.5016,-0.0220,0.1771,0.0517,28.41310176392277,76.92534694706028,221.8000,5.7103
2026-02-05T09:54:51.487Z,-1.5219,-1.3534,1.8512,0.0190,-0.1221,0.0682,28.41310176392277,76.92534694706028,221.8000,5.7103
2026-02-05T09:54:51.496Z,-1.1881,1.7049,0.4734,-0.0770,0.0153,-0.0304,28.41310176392277,76.92534694706028,221.8000,5.7103
2026-02-05T09:54:51.506Z,-0.6549,0.3060,1.2994,0.0701,-0.1934,0.0123,28.41310176392277,76.92534694706028,221.8000,5.7103
2026-02-05T09:54:51.516Z,0.9199,-1.6594,1.0240,0.0433,0.0274,-0.0776,28.41310176392277,76.92534694706028,221.8000,5.7103
2026-02-05T09:54:51.526Z,1.0955,0.7416,-2.6587,-0.1933,0.0052,0.0513,28.41310176392277,76.92534694706028,221.8000,5.7103
2026-02-05T09:54:51.536Z,-1.8960,2.9136,-1.3161,0.0019,-0.1302,0.0513,28.41310176392277,76.92534694706028,221.8000,5.7103
2026-02-05T09:54:51.546Z,-0.1936,0.8296,0.9882,-0.0320,-0.0582,0.0200,28.41310176392277,76.92534694706028,221.8000,5.7103
2026-02-05T09:54:51.556Z,-0.1472,-0.0837,-1.9187,-0.1629,-0.0903,0.0136,28.41310176392277,76.92534694706028,221.8000,5.7103
2026-02-05T09:54:51.566Z,0.0998,-3.2573,0.8204,-0.0118,-0.0586,-0.0040,28.41310176392277,76.92534694706028,221.8000,5.7103
2026-02-05T09:54:51.576Z,-0.8483,-0.8741,1.4639,-0.0514,-0.0584,0.0840,28.41310176392277,76.92534694706028,221.8000,5.7103
2026-02-05T09:54:51.586Z,-0.1843,0.5321,0.4042,-0.0901,0.0155,0.0166,28.41310176392277,76.92534694706028,221.8000,5.7103
2026-02-05T09:54:51.596Z,0.2033,-0.4298,1.6541,0.0088,-0.0972,0.0241,28.41310176392277,76.92534694706028,221.8000,5.7103
2026-02-05T09:54:51.606Z,-0.1128,1.1288,0.0554,-0.0308,-0.0065,0.0028,28.41310176392277,76.92534694706028,221.8000,5.7103
2026-02-05T09:54:51.616Z,0.5352,0.6357,-1.3712,-0.0957,-0.0129,0.0716,28.41310176392277,76.92534694706028,221.8000,5.7103
2026-02-05T09:54:51.626Z,-0.3711,-0.9695,-0.9660,-0.1001,-0.0235,-0.0228,28.41310176392277,76.92534694706028,221.8000,5.7103
2026-02-05T09:54:51.637Z,-0.0489,1.3491,0.0981,-0.0897,-0.0103,0.0588,28.41310176392277,76.92534694706028,221.8000,5.7103
2026-02-05T09:54:51.646Z,-0.2920,-1.0592,1.3479,-0.0402,-0.0619,-0.0047,28.41310176392277,76.92534694706028,221.8000,5.7103
2026-02-05T09:54:51.656Z,1.3086,-0.9744,1.1223,-0.1068,0.2005,-0.0018,28.41310176392277,76.92534694706028,221.8000,5.7103
2026-02-05T09:54:51.665Z,-2.5044,-0.5202,0.7616,-0.0459,-0.2729,0.0661,28.41310176392277,76.92534694706028,221.8000,5.7103
2026-02-05T09:54:51.676Z,-0.0144,-1.1483,0.5526,-0.0186,0.1176,0.0003,28.41310176392277,76.92534694706028,221.8000,5.7103
2026-02-05T09:54:51.687Z,1.7383,0.8419,0.0292,0.0291,-0.0489,0.0806,28.41310176392277,76.92534694706028,221.8000,5.7103
2026-02-05T09:54:51.695Z,1.1121,1.4737,-1.5548,-0.1296,0.0602,0.0051,28.41310176392277,76.92534694706028,221.8000,5.7103
2026-02-05T09:54:51.706Z,1.9619,0.7362,-1.3940,-0.1446,0.1520,-0.0285,28.41310176392277,76.92534694706028,221.8000,5.7103
2026-02-05T09:54:51.715Z,-2.7689,-0.1107,0.2870,0.0920,-0.2238,0.0346,28.41310176392277,76.92534694706028,221.8000,5.7103
2026-02-05T09:54:51.726Z,0.0102,-3.0374,0.4813,-0.0673,-0.0247,-0.1432,28.41310176392277,76.92534694706028,221.8000,5.7103
2026-02-05T09:54:51.736Z,3.0440,-0.2222,-1.1391,-0.2393,0.1251,0.0696,28.41310176392277,76.92534694706028,221.8000,5.7103
2026-02-05T09:54:51.745Z,0.2046,0.8130,2.2785,0.0557,0.0560,0.0678,28.41310176392277,76.92534694706028,221.8000,5.7103
2026-02-05T09:54:51.755Z,-0.9547,-0.4619,2.0990,0.1290,-0.0165,0.0926,28.41310176392277,76.92534694706028,221.8000,5.7103
2026-02-05T09:54:51.766Z,-3.1253,1.1933,-3.3010,-0.0198,-0.1001,0.0806,28.41310176392277,76.92534694706028,221.8000,5.7103
2026-02-05T09:54:51.776Z,-0.3982,-1.2556,-1.3763,-0.1244,-0.0522,-0.0362,28.41310176392277,76.92534694706028,221.8000,5.7103
2026-02-05T09:54:51.786Z,2.7852,-0.0545,0.3084,0.0477,0.1668,-0.0335,28.41310176392277,76.92534694706028,221.8000,5.7103
2026-02-05T09:54:51.796Z,1.2043,0.7789,-0.2853,0.0714,0.1617,0.0499,28.41310176392277,76.92534694706028,221.8000,5.7103
2026-02-05T09:54:51.807Z,-2.7985,-0.3941,-0.9182,-0.0119,-0.1685,0.0339,28.413050825800575,76.92536392553797,221.8000,5.9161
2026-02-05T09:54:51.816Z,-0.4943,-0.2447,0.8419,0.0064,-0.0356,-0.0697,28.413050825800575,76.92536392553797,221.8000,5.9161
2026-02-05T09:54:51.825Z,1.7676,0.4029,0.4631,-0.0317,0.0606,0.0437,28.413050825800575,76.92536392553797,221.8000,5.9161
2026-02-05T09:54:51.836Z,1.0947,-0.0980,-0.4299,0.0803,0.1018,0.0190,28.413050825800575,76.92536392553797,221.8000,5.9161
2026-02-05T09:54:51.846Z,1.0208,-1.9377,1.5552,0.0533,0.1468,0.0752,28.413050825800575,76.92536392553797,221.8000,5.9161
2026-02-05T09:54:51.856Z,-2.9088,0.7479,-0.3320,0.0316,-0.0794,0.1008,28.413050825800575,76.92536392553797,221.8000,5.9161
2026-02-05T09:54:51.866Z,-0.7089,-0.1327,-1.0352,0.0281,-0.0066,-0.0833,28.413050825800575,76.92536392553797,221.8000,5.9161
2026-02-05T09:54:51.876Z,1.2544,0.3789,-1.0344,-0.0660,0.0501,0.0123,28.413050825800575,76.92536392553797,221.8000,5.9161
2026-02-05T09:54:51.886Z,1.1395,0.6279,0.1151,0.1233,0.1703,0.0289,28.413050825800575,76.92536392553797,221.8000,5.9161
2026-02-05T09:54:51.896Z,0.1744,-0.7828,0.8593,0.0419,0.0281,0.0622,28.413050825800575,76.92536392553797,221.8000,5.9161
2026-02-05T09:54:51.907Z,-1.8509,1.5504,-2.6487,-0.1327,0.0103,0.0111,28.413050825800575,76.92536392553797,221.8000,5.9161
2026-02-05T09:54:51.916Z,-1.0673,-0.8094,0.2796,0.0251,-0.0935,0.0336,28.413050825800575,76.92536392553797,221.8000,5.9161
2026-02-05T09:54:51.925Z,0.9400,-1.8251,2.2581,0.0659,0.1419,0.0514,28.413050825800575,76.92536392553797,221.8000,5.9161
2026-02-05T09:54:51.936Z,0.1677,1.0474,-0.6757,-0.0341,0.0503,0.0171,28.413050825800575,76.92536392553797,221.8000,5.9161
2026-02-05T09:54:51.946Z,-1.8863,-0.0144,0.1927,0.0499,-0.0947,0.0466,28.413050825800575,76.92536392553797,221.8000,5.9161
2026-02-05T09:54:51.956Z,-0.7280,-0.7365,0.1169,0.0597,-0.0900,-0.0789,28.413050825800575,76.92536392553797,221.8000,5.9161
2026-02-05T09:54:51.966Z,1.4293,-0.1948,-1.8097,-0.0580,0.1039,0.0602,28.413050825800575,76.92536392553797,221.8000,5.9161
2026-02-05T09:54:51.975Z,-0.2178,0.2524,-0.1195,0.0236,-0.1139,0.0091,28.413050825800575,76.92536392553797,221.8000,5.9161
2026-02-05T09:54:51.986Z,1.7527,0.6421,1.0601,0.0227,0.2309,0.0560,28.413050825800575,76.92536392553797,221.8000,5.9161
2026-02-05T09:54:51.995Z,-2.1670,-0.1704,-1.4752,-0.0223,-0.1720,0.0955,28.413050825800575,76.92536392553797,221.8000,5.9161
2026-02-05T09:54:52.005Z,-1.0590,-1.8038,-0.0094,-0.0566,0.0490,-0.0143,28.413050825800575,76.92536392553797,221.8000,5.9161
2026-02-05T09:54:52.016Z,0.2751,-0.8540,1.7936,-0.0105,-0.0080,0.0464,28.413050825800575,76.92536392553797,221.8000,5.9161
2026-02-05T09:54:52.025Z,-0.6177,0.5053,1.1147,-0.0468,0.0000,-0.0081,28.413050825800575,76.92536392553797,221.8000,5.9161
2026-02-05T09:54:52.036Z,-0.5540,-0.0875,0.7492,-0.0057,-0.0607,0.0418,28.413050825800575,76.92536392553797,221.8000,5.9161
2026-02-05T09:54:52.046Z,-0.9690,-1.8188,0.8529,-0.0023,-0.1536,-0.0391,28.413050825800575,76.92536392553797,221.8000,5.9161
2026-02-05T09:54:52.055Z,1.3262,1.0165,-0.9662,-0.0999,0.1106,0.0906,28.413050825800575,76.92536392553797,221.8000,5.9161
2026-02-05T09:54:52.066Z,-0.9074,0.0644,0.3070,0.0634,-0.1134,0.0612,28.413050825800575,76.92536392553797,221.8000,5.9161
2026-02-05T09:54:52.075Z,1.0447,-1.4703,1.4284,0.0121,0.0730,-0.0291,28.413050825800575,76.92536392553797,221.8000,5.9161
2026-02-05T09:54:52.086Z,-0.9818,0.6530,-2.5379,-0.1539,-0.1090,0.0265,28.413050825800575,76.92536392553797,221.8000,5.9161
2026-02-05T09:54:52.095Z,-0.8322,-0.0485,0.3379,-0.0054,0.0363,-0.0583,28.413050825800575,76.92536392553797,221.8000,5.9161
2026-02-05T09:54:52.105Z,0.7604,-1.3156,1.9126,-0.0187,-0.0977,0.0069,28.413050825800575,76.92536392553797,221.8000,5.9161
2026-02-05T09:54:52.116Z,-0.6812,-0.2880,-2.9640,-0.1233,-0.0163,0.0142,28.413050825800575,76.92536392553797,221.8000,5.9161
2026-02-05T09:54:52.125Z,0.4175,-0.7776,0.8737,0.0160,0.0969,0.1112,28.413050825800575,76.92536392553797,221.8000,5.9161
2026-02-05T09:54:52.136Z,-1.5829,0.5814,3.6131,0.1014,-0.0971,0.1075,28.413050825800575,76.92536392553797,221.8000,5.9161
2026-02-05T09:54:52.146Z,-0.8912,0.2045,-1.5621,-0.0647,-0.0397,-0.1060,28.413050825800575,76.92536392553797,221.8000,5.9161
2026-02-05T09:54:52.157Z,-0.2191,-0.5171,-1.9764,-0.1757,-0.0137,0.0594,28.413050825800575,76.92536392553797,221.8000,5.9161
2026-02-05T09:54:52.166Z,-0.3906,-0.7590,2.2814,0.0516,-0.1246,-0.0824,28.413050825800575,76.92536392553797,221.8000,5.9161
2026-02-05T09:54:52.175Z,3.1001,-0.0152,0.3079,-0.0570,0.2003,0.0207,28.413050825800575,76.92536392553797,221.8000,5.9161
2026-02-05T09:54:52.186Z,-1.0436,0.7273,-2.7099,-0.1053,-0.1453,0.0562,28.413050825800575,76.92536392553797,221.8000,5.9161
2026-02-05T09:54:52.195Z,0.1049,-2.4332,2.6073,0.0302,0.0017,-0.0487,28.413050825800575,76.92536392553797,221.8000,5.9161
2026-02-05T09:54:52.206Z,0.1496,0.0362,1.4784,-0.0458,-0.0538,0.0552,28.413050825800575,76.92536392553797,221.8000,5.9161
2026-02-05T09:54:52.215Z,-0.4887,-0.5487,-0.2282,-0.0022,-0.0672,-0.0261,28.413050825800575,76.92536392553797,221.8000,5.9161
2026-02-05T09:54:52.226Z,1.1396,-0.4443,-0.1416,-0.0567,0.0679,0.0502,28.413050825800575,76.92536392553797,221.8000,5.9161
2026-02-05T09:54:52.236Z,-1.8608,0.9521,-2.0824,0.0713,-0.1872,-0.0229,28.413050825800575,76.92536392553797,221.8000,5.9161
2026-02-05T09:54:52.246Z,0.8814,-1.9918,-1.1234,-0.0090,0.2432,0.0660,28.413050825800575,76.92536392553797,221.8000,5.9161
2026-02-05T09:54:52.255Z,-1.4082,0.3523,-2.9449,-0.1419,-0.2820,0.0157,28.413050825800575,76.92536392553797,221.8000,5.9161
2026-02-05T09:54:52.266Z,1.7682,0.2768,-0.2001,-0.0582,0.2459,-0.0252,28.413050825800575,76.92536392553797,221.8000,5.9161
2026-02-05T09:54:52.276Z,1.4797,-1.5893,2.0967,0.0300,-0.1428,0.0502,28.413050825800575,76.92536392553797,221.8000,5.9161
2026-02-05T09:54:52.286Z,0.6668,-1.5394,-0.1893,-0.0083,0.1667,0.0146,28.413050825800575,76.92536392553797,221.8000,5.9161
2026-02-05T09:54:52.296Z,0.5444,-1.4465,0.2554,-0.0299,0.0020,0.0901,28.413050825800575,76.92536392553797,221.8000,5.9161
2026-02-05T09:54:52.305Z,-2.5187,-0.3677,-0.3213,-0.0027,-0.1097,0.0029,28.413050825800575,76.92536392553797,221.8000,5.9161
2026-02-05T09:54:52.316Z,1.2674,-0.1847,-0.3311,0.0105,0.1337,-0.0272,28.413050825800575,76.92536392553797,221.8000,5.9161
2026-02-05T09:54:52.325Z,0.0631,0.1104,-0.8527,-0.0338,-0.0614,0.0609,28.413050825800575,76.92536392553797,221.8000,5.9161
2026-02-05T09:54:52.336Z,-1.0635,-0.4515,-0.9313,0.0309,-0.0645,-0.0040,28.413050825800575,76.92536392553797,221.8000,5.9161
2026-02-05T09:54:52.346Z,1.9621,-0.5332,-1.8777,-0.0764,0.2423,0.0681,28.413050825800575,76.92536392553797,221.8000,5.9161
2026-02-05T09:54:52.356Z,-1.6034,-0.7200,-0.9843,-0.0197,-0.1475,0.0157,28.413050825800575,76.92536392553797,221.8000,5.9161
2026-02-05T09:54:52.366Z,-0.5796,-1.7609,2.1798,0.0335,0.0541,0.0138,28.413050825800575,76.92536392553797,221.8000,5.9161
2026-02-05T09:54:52.376Z,0.1109,-2.0750,-0.2068,-0.0953,-0.0115,0.0330,28.413050825800575,76.92536392553797,221.8000,5.9161
2026-02-05T09:54:52.386Z,-0.3078,-2.3710,-0.5289,-0.0025,0.0200,0.0359,28.413050825800575,76.92536392553797,221.8000,5.9161
2026-02-05T09:54:52.396Z,1.2119,-1.0982,1.7041,0.0166,0.1784,0.0211,28.413050825800575,76.92536392553797,221.8000,5.9161
2026-02-05T09:54:52.406Z,-1.2657,2.2774,0.3337,0.0548,-0.1643,-0.0152,28.413050825800575,76.92536392553797,221.8000,5.9161
2026-02-05T09:54:52.416Z,1.0120,-0.8660,0.0056,0.0752,0.1611,-0.0021,28.413050825800575,76.92536392553797,221.8000,5.9161
2026-02-05T09:54:52.425Z,1.1595,-1.0242,-1.0223,-0.1030,0.0656,0.0524,28.413050825800575,76.92536392553797,221.8000,5.9161
2026-02-05T09:54:52.436Z,-1.1943,-0.0908,-0.4812,-0.0244,0.0526,0.0851,28.413050825800575,76.92536392553797,221.8000,5.9161
2026-02-05T09:54:52.446Z,-1.4194,-0.9003,1.1289,0.0395,-0.0694,-0.0163,28.413050825800575,76.92536392553797,221.8000,5.9161
2026-02-05T09:54:52.456Z,-0.4295,-0.2799,-0.0544,-0.0128,0.0251,0.0339,28.413050825800575,76.92536392553797,221.8000,5.9161
2026-02-05T09:54:52.466Z,0.2141,-3.6982,1.1896,0.0189,0.1047,0.0170,28.413050825800575,76.92536392553797,221.8000,5.9161
2026-02-05T09:54:52.476Z,-2.2899,-1.6687,0.3254,0.0182,-0.2379,0.0394,28.413050825800575,76.92536392553797,221.8000,5.9161
2026-02-05T09:54:52.486Z,0.3193,2.3617,-0.1058,0.0036,0.1779,0.0606,28.413050825800575,76.92536392553797,221.8000,5.9161
2026-02-05T09:54:52.496Z,-0.0023,1.2532,2.6516,0.0932,-0.2120,0.1001,28.413050825800575,76.92536392553797,221.8000,5.9161
2026-02-05T09:54:52.506Z,0.3942,-0.5744,0.0967,0.0378,0.1306,-0.0270,28.413050825800575,76.92536392553797,221.8000,5.9161
2026-02-05T09:54:52.516Z,-0.4295,-0.2690,-2.2858,-0.0254,-0.1468,0.0960,28.413050825800575,76.92536392553797,221.8000,5.9161
2026-02-05T09:54:52.526Z,-2.1123,-1.9211,-0.3150,0.0377,-0.1439,-0.0173,28.413050825800575,76.92536392553797,221.8000,5.9161
2026-02-05T09:54:52.536Z,1.8913,-1.2408,1.0742,0.0119,0.0598,0.0034,28.413050825800575,76.92536392553797,221.8000,5.9161
2026-02-05T09:54:52.546Z,-0.6227,0.0678,0.1096,-0.0216,-0.0810,0.1014,28.413050825800575,76.92536392553797,221.8000,5.9161
2026-02-05T09:54:52.556Z,-1.3208,-0.5125,2.0585,0.1048,-0.0467,-0.0074,28.413050825800575,76.92536392553797,221.8000,5.9161
2026-02-05T09:54:52.566Z,-0.3813,-0.3636,1.2448,0.0747,-0.1019,0.0660,28.413050825800575,76.92536392553797,221.8000,5.9161
2026-02-05T09:54:52.576Z,-1.8966,0.0317,-2.1169,-0.0567,-0.1429,0.0194,28.413050825800575,76.92536392553797,221.8000,5.9161
2026-02-05T09:54:52.586Z,2.0223,-0.4108,1.0228,0.1125,0.1825,0.0331,28.413050825800575,76.92536392553797,221.8000,5.9161
2026-02-05T09:54:52.596Z,-1.3583,-0.1477,0.9019,0.1131,-0.1644,0.0550,28.413050825800575,76.92536392553797,221.8000,5.9161
2026-02-05T09:54:52.606Z,-1.9707,0.1192,-3.0262,-0.0606,-0.0370,0.0044,28.413050825800575,76.92536392553797,221.8000,5.9161
2026-02-05T09:54:52.616Z,1.1054,-2.7788,0.4950,0.0626,-0.1483,-0.0950,28.413050825800575,76.92536392553797,221.8000,5.9161
2026-02-05T09:54:52.625Z,1.4618,-1.2346,1.3604,-0.0141,0.1640,0.1047,28.413050825800575,76.92536392553797,221.8000,5.9161
2026-02-05T09:54:52.636Z,-1.4507,0.4955,0.3903,0.0845,-0.0572,0.0647,28.413050825800575,76.92536392553797,221.8000,5.9161
2026-02-05T09:54:52.646Z,-1.3539,-0.7158,1.9107,0.0694,-0.1072,0.0057,28.413050825800575,76.92536392553797,221.8000,5.9161
2026-02-05T09:54:52.656Z,-0.5282,1.9113,-0.7480,0.0169,-0.1448,-0.0722,28.413050825800575,76.92536392553797,221.8000,5.9161
2026-02-05T09:54:52.666Z,2.8685,-1.0918,-0.8644,0.0914,0.1851,-0.0502,28.413050825800575,76.92536392553797,221.8000,5.9161
2026-02-05T09:54:52.676Z,-0.4048,-1.8655,-1.5970,-0.0463,-0.0031,0.1179,28.413050825800575,76.92536392553797,221.8000,5.9161
2026-02-05T09:54:52.685Z,-3.0558,-0.3656,-2.0167,-0.0193,-0.1487,0.0900,28.413050825800575,76.92536392553797,221.8000,5.9161
2026-02-05T09:54:52.696Z,-0.7041,-1.7534,1.3307,0.0705,-0.1812,-0.1090,28.413050825800575,76.92536392553797,221.8000,5.9161
2026-02-05T09:54:52.706Z,2.1506,-1.0882,0.6798,0.0009,0.0447,-0.0440,28.413050825800575,76.92536392553797,221.8000,5.9161
2026-02-05T09:54:52.716Z,2.3038,-1.7004,-0.2591,-0.0029,0.1075,0.0323,28.413050825800575,76.92536392553797,221.8000,5.9161
2026-02-05T09:54:52.726Z,-0.7582,-0.8815,-0.0048,-0.0073,-0.0342,0.1068,28.413050825800575,76.92536392553797,221.8000,5.9161
2026-02-05T09:54:52.736Z,-1.4310,0.9864,-0.3195,0.0134,-0.1224,-0.0338,28.413050825800575,76.92536392553797,221.8000,5.9161
2026-02-05T09:54:52.746Z,0.8210,0.4223,-1.1474,-0.0359,0.0628,-0.0307,28.413050825800575,76.92536392553797,221.8000,5.9161
2026-02-05T09:54:52.755Z,0.7871,-0.3526,-0.7387,-0.0150,-0.0229,0.0278,28.413050825800575,76.92536392553797,221.8000,5.9161
2026-02-05T09:54:52.768Z,-1.1710,-1.9774,-0.6656,-0.0253,-0.1391,0.0561,28.413050825800575,76.92536392553797,221.8000,5.9161
2026-02-05T09:54:52.777Z,-1.1710,-1.9774,-0.6656,-0.0253,-0.1391,0.0561,28.412997763990937,76.92538549318853,221.6000,5.7103
2026-02-05T09:54:52.788Z,0.3481,-1.1921,-0.6461,0.0306,-0.0693,0.0280,28.412997763990937,76.92538549318853,221.6000,5.7103
2026-02-05T09:54:52.796Z,1.3099,-1.4090,1.4423,0.0306,-0.0693,0.0280,28.412997763990937,76.92538549318853,221.6000,5.7103
2026-02-05T09:54:52.805Z,1.0954,-1.1244,0.8249,-0.0081,0.2327,-0.0089,28.412997763990937,76.92538549318853,221.6000,5.7103
2026-02-05T09:54:52.821Z,0.3613,-0.1875,-0.0553,-0.0969,0.1219,-0.0146,28.412997763990937,76.92538549318853,221.6000,5.7103
2026-02-05T09:54:52.826Z,0.3613,-0.1875,-0.0553,-0.0969,0.1219,-0.0146,28.412997763990937,76.92538549318853,221.6000,5.7103
2026-02-05T09:54:52.837Z,2.0244,0.5701,1.5719,-0.0211,0.0608,-0.0063,28.412997763990937,76.92538549318853,221.6000,5.7103
2026-02-05T09:54:52.847Z,-0.1255,-2.1336,0.2119,-0.1079,0.1440,0.0374,28.412997763990937,76.92538549318853,221.6000,5.7103
2026-02-05T09:54:52.855Z,-0.3137,-2.1741,-1.2721,-0.1079,0.1440,0.0374,28.412997763990937,76.92538549318853,221.6000,5.7103
2026-02-05T09:54:52.869Z,1.8439,-1.3210,2.4025,0.0084,0.3296,0.0286,28.412997763990937,76.92538549318853,221.6000,5.7103
2026-02-05T09:54:52.877Z,1.8439,-1.3210,2.4025,-0.0751,-0.0967,0.0831,28.412997763990937,76.92538549318853,221.6000,5.7103
2026-02-05T09:54:52.886Z,-1.2112,0.1584,-0.6829,0.0420,0.1334,0.0205,28.412997763990937,76.92538549318853,221.6000,5.7103
2026-02-05T09:54:52.898Z,-0.3810,-0.6954,0.4317,0.0370,0.0809,0.0281,28.412997763990937,76.92538549318853,221.6000,5.7103
2026-02-05T09:54:52.905Z,1.3337,-0.3670,1.2358,0.0370,0.0809,0.0281,28.412997763990937,76.92538549318853,221.6000,5.7103
2026-02-05T09:54:52.918Z,0.3472,0.2933,-1.0219,-0.0484,0.1031,-0.0112,28.412997763990937,76.92538549318853,221.6000,5.7103
2026-02-05T09:54:52.928Z,0.3472,0.2933,-1.0219,0.0057,0.0275,0.0441,28.412997763990937,76.92538549318853,221.6000,5.7103
2026-02-05T09:54:52.937Z,0.0722,-2.3332,1.6662,0.0050,0.0835,0.0165,28.412997763990937,76.92538549318853,221.6000,5.7103
2026-02-05T09:54:52.947Z,-0.2538,-2.4161,0.4614,0.0019,0.0883,0.0675,28.412997763990937,76.92538549318853,221.6000,5.7103
2026-02-05T09:54:52.955Z,0.2379,-1.5017,0.5582,0.0019,0.0883,0.0675,28.412997763990937,76.92538549318853,221.6000,5.7103
2026-02-05T09:54:52.970Z,0.5027,-0.7604,0.9819,0.0270,0.0599,0.0040,28.412997763990937,76.92538549318853,221.6000,5.7103
2026-02-05T09:54:52.976Z,0.5027,-0.7604,0.9819,0.0270,0.0599,0.0040,28.412997763990937,76.92538549318853,221.6000,5.7103
2026-02-05T09:54:52.988Z,0.1347,-1.1172,-0.3822,0.0637,0.0296,-0.0090,28.412997763990937,76.92538549318853,221.6000,5.7103
2026-02-05T09:54:52.998Z,-0.3321,-0.9849,0.6187,0.0068,0.0080,-0.0058,28.412997763990937,76.92538549318853,221.6000,5.7103
2026-02-05T09:54:53.006Z,0.1786,0.0332,0.1539,0.0068,0.0080,-0.0058,28.412997763990937,76.92538549318853,221.6000,5.7103
2026-02-05T09:54:53.019Z,-0.1428,-1.3331,0.3317,0.0273,-0.0016,0.0144,28.412997763990937,76.92538549318853,221.6000,5.7103
2026-02-05T09:54:53.026Z,-0.1428,-1.3331,0.3317,0.0768,0.0644,0.0152,28.412997763990937,76.92538549318853,221.6000,5.7103
2026-02-05T09:54:53.037Z,0.3960,-1.6248,1.2511,0.0254,-0.1223,0.0168,28.412997763990937,76.92538549318853,221.6000,5.7103
2026-02-05T09:54:53.047Z,-2.1247,-0.8434,0.2281,0.0500,-0.0223,0.0143,28.412997763990937,76.92538549318853,221.6000,5.7103
2026-02-05T09:54:53.057Z,-0.9617,0.1927,0.0165,0.1652,-0.0026,0.0426,28.412997763990937,76.92538549318853,221.6000,5.7103
2026-02-05T09:54:53.068Z,-0.8329,-0.7302,-0.3853,-0.0050,-0.0658,0.0249,28.412997763990937,76.92538549318853,221.6000,5.7103
2026-02-05T09:54:53.075Z,-0.8329,-0.7302,-0.3853,-0.0050,-0.0658,0.0249,28.412997763990937,76.92538549318853,221.6000,5.7103
2026-02-05T09:54:53.088Z,-1.2449,0.3902,1.6194,0.1985,-0.1497,0.0011,28.412997763990937,76.92538549318853,221.6000,5.7103
2026-02-05T09:54:53.097Z,-1.2449,0.3902,1.6194,0.0914,-0.0611,-0.0070,28.412997763990937,76.92538549318853,221.6000,5.7103
2026-02-05T09:54:53.108Z,-0.2332,-1.3236,-0.4690,-0.0066,-0.0009,0.0546,28.412997763990937,76.92538549318853,221.6000,5.7103
2026-02-05T09:54:53.119Z,-0.9352,-0.5419,-0.8275,0.0631,-0.0417,0.0672,28.412997763990937,76.92538549318853,221.6000,5.7103
2026-02-05T09:54:53.127Z,-0.9352,-0.5419,-0.8275,0.1732,-0.0835,0.0030,28.412997763990937,76.92538549318853,221.6000,5.7103
2026-02-05T09:54:53.137Z,-1.7376,0.5450,1.9223,0.0190,-0.1794,0.0016,28.412997763990937,76.92538549318853,221.6000,5.7103
2026-02-05T09:54:53.147Z,-1.5851,0.0473,0.0274,0.0881,0.0027,0.0238,28.412997763990937,76.92538549318853,221.6000,5.7103
2026-02-05T09:54:53.157Z,0.1462,-0.0543,-0.5529,0.2437,-0.0816,0.0522,28.412997763990937,76.92538549318853,221.6000,5.7103
2026-02-05T09:54:53.169Z,0.2315,-0.0875,-1.6399,0.0355,0.0906,0.0633,28.412997763990937,76.92538549318853,221.6000,5.7103
2026-02-05T09:54:53.180Z,0.2315,-0.0875,-1.6399,0.0355,0.0906,0.0633,28.412997763990937,76.92538549318853,221.6000,5.7103
2026-02-05T09:54:53.185Z,-1.4889,-0.0404,-3.0180,-0.0168,-0.1889,-0.0069,28.412997763990937,76.92538549318853,221.6000,5.7103
2026-02-05T09:54:53.196Z,-0.3070,-0.3702,0.5292,0.1173,-0.1096,0.0238,28.412997763990937,76.92538549318853,221.6000,5.7103
2026-02-05T09:54:53.208Z,0.5939,0.3715,-0.0251,-0.0051,0.0742,0.0634,28.412997763990937,76.92538549318853,221.6000,5.7103
2026-02-05T09:54:53.219Z,0.7754,-1.1022,0.4247,0.0908,-0.0169,0.0286,28.412997763990937,76.92538549318853,221.6000,5.7103
2026-02-05T09:54:53.227Z,0.7754,-1.1022,0.4247,0.1018,0.0251,0.0568,28.412997763990937,76.92538549318853,221.6000,5.7103
2026-02-05T09:54:53.237Z,-0.4154,-0.6871,1.7390,0.0337,-0.0958,-0.0266,28.412997763990937,76.92538549318853,221.6000,5.7103
2026-02-05T09:54:53.246Z,-1.3684,-0.2322,-1.4225,0.0583,-0.0075,0.0199,28.412997763990937,76.92538549318853,221.6000,5.7103
2026-02-05T09:54:53.257Z,1.8002,-1.0270,0.4291,0.0879,0.0714,-0.0376,28.412997763990937,76.92538549318853,221.6000,5.7103
2026-02-05T09:54:53.269Z,0.2896,0.1793,-1.2847,-0.0294,-0.0200,0.0897,28.412997763990937,76.92538549318853,221.6000,5.7103
2026-02-05T09:54:53.277Z,0.2896,0.1793,-1.2847,0.0134,0.0690,0.0078,28.412997763990937,76.92538549318853,221.6000,5.7103
2026-02-05T09:54:53.287Z,0.0956,0.1940,-1.6271,0.0857,-0.1111,0.0090,28.412997763990937,76.92538549318853,221.6000,5.7103
2026-02-05T09:54:53.297Z,0.2445,0.0629,1.0813,-0.0372,0.1115,0.0901,28.412997763990937,76.92538549318853,221.6000,5.7103
2026-02-05T09:54:53.306Z,0.5009,-1.0684,-0.0995,-0.0488,-0.0581,-0.0234,28.412997763990937,76.92538549318853,221.6000,5.7103
2026-02-05T09:54:53.319Z,1.6690,-0.3139,0.7393,-0.0160,0.1524,0.0492,28.412997763990937,76.92538549318853,221.6000,5.7103
2026-02-05T09:54:53.327Z,1.6690,-0.3139,0.7393,0.0197,0.0481,0.0115,28.412997763990937,76.92538549318853,221.6000,5.7103
2026-02-05T09:54:53.336Z,-0.2594,1.9907,0.3158,-0.0268,0.0393,0.0680,28.412997763990937,76.92538549318853,221.6000,5.7103
2026-02-05T09:54:53.346Z,0.0672,1.3859,-0.1452,-0.0750,0.1406,0.0615,28.412997763990937,76.92538549318853,221.6000,5.7103
2026-02-05T09:54:53.357Z,0.7241,0.0922,-0.8091,-0.0461,0.1081,-0.0051,28.412997763990937,76.92538549318853,221.6000,5.7103
2026-02-05T09:54:53.368Z,1.8119,-1.3568,-0.8805,-0.1249,0.2884,0.0213,28.412997763990937,76.92538549318853,221.6000,5.7103
2026-02-05T09:54:53.377Z,1.8119,-1.3568,-0.8805,-0.0342,0.0793,0.0254,28.412997763990937,76.92538549318853,221.6000,5.7103
2026-02-05T09:54:53.386Z,-0.7704,0.1984,0.4435,-0.0371,-0.0197,0.0491,28.412997763990937,76.92538549318853,221.6000,5.7103
2026-02-05T09:54:53.397Z,-1.7819,1.3677,1.2313,-0.0440,0.2727,-0.0876,28.412997763990937,76.92538549318853,221.6000,5.7103
2026-02-05T09:54:53.408Z,2.5210,0.9113,-0.1625,-0.1156,0.1534,0.1482,28.412997763990937,76.92538549318853,221.6000,5.7103
2026-02-05T09:54:53.418Z,-1.1193,-1.1519,0.4562,-0.1180,0.1002,-0.0016,28.412997763990937,76.92538549318853,221.6000,5.7103
2026-02-05T09:54:53.426Z,-1.1193,-1.1519,0.4562,-0.1147,0.0992,-0.0033,28.412997763990937,76.92538549318853,221.6000,5.7103
2026-02-05T09:54:53.437Z,0.0122,1.1666,-0.3668,-0.0286,0.1147,0.0937,28.412997763990937,76.92538549318853,221.6000,5.7103
2026-02-05T09:54:53.447Z,-0.9783,0.7859,1.6270,-0.0163,0.1578,0.0220,28.412997763990937,76.92538549318853,221.6000,5.7103
2026-02-05T09:54:53.458Z,0.5967,-1.1434,0.5480,-0.0848,0.1201,0.0622,28.412997763990937,76.92538549318853,221.6000,5.7103
2026-02-05T09:54:53.467Z,-2.8602,-1.1150,0.4543,-0.0679,-0.0288,0.0208,28.412997763990937,76.92538549318853,221.6000,5.7103
2026-02-05T09:54:53.476Z,-2.8602,-1.1150,0.4543,-0.0309,-0.0527,0.0417,28.412997763990937,76.92538549318853,221.6000,5.7103
2026-02-05T09:54:53.487Z,0.2998,0.7055,1.1020,-0.0333,0.0388,0.0318,28.412997763990937,76.92538549318853,221.6000,5.7103
2026-02-05T09:54:53.497Z,0.2998,0.7055,1.1020,-0.0314,0.0125,0.0517,28.412997763990937,76.92538549318853,221.6000,5.7103
2026-02-05T09:54:53.507Z,0.0746,-0.8612,0.4461,-0.0412,-0.0492,0.0633,28.412997763990937,76.92538549318853,221.6000,5.7103
2026-02-05T09:54:53.518Z,-2.3298,-0.8486,0.4679,-0.0288,-0.1166,0.0714,28.412997763990937,76.92538549318853,221.6000,5.7103
2026-02-05T09:54:53.526Z,-2.3298,-0.8486,0.4679,-0.0035,-0.1889,0.0367,28.412997763990937,76.92538549318853,221.6000,5.7103
2026-02-05T09:54:53.536Z,-2.6736,-0.1412,0.4727,-0.0377,-0.0327,0.0286,28.412997763990937,76.92538549318853,221.6000,5.7103
2026-02-05T09:54:53.547Z,-0.9481,-0.9991,1.0754,0.0137,-0.1571,0.0362,28.412997763990937,76.92538549318853,221.6000,5.7103
2026-02-05T09:54:53.556Z,-0.9481,-0.9991,1.0754,0.0253,-0.1549,0.0584,28.412997763990937,76.92538549318853,221.6000,5.7103
2026-02-05T09:54:53.567Z,-1.9185,0.2829,0.0098,-0.0688,-0.1600,0.0297,28.412997763990937,76.92538549318853,221.6000,5.7103
2026-02-05T09:54:53.576Z,-1.9185,0.2829,0.0098,0.0674,-0.2540,0.0058,28.412997763990937,76.92538549318853,221.6000,5.7103
2026-02-05T09:54:53.587Z,0.0067,-0.7577,1.5974,0.1041,-0.0413,-0.0022,28.412997763990937,76.92538549318853,221.6000,5.7103
2026-02-05T09:54:53.597Z,0.0067,-0.7577,1.5974,-0.0509,-0.1962,0.0605,28.412997763990937,76.92538549318853,221.6000,5.7103
2026-02-05T09:54:53.608Z,-1.0197,-0.9086,-1.3473,-0.0367,-0.2563,-0.0054,28.412997763990937,76.92538549318853,221.6000,5.7103
2026-02-05T09:54:53.618Z,0.4015,-0.0783,1.4225,0.1733,-0.0986,-0.0185,28.412997763990937,76.92538549318853,221.6000,5.7103
2026-02-05T09:54:53.626Z,0.3391,0.7441,-0.5720,0.0143,-0.0508,0.0488,28.412997763990937,76.92538549318853,221.6000,5.7103
2026-02-05T09:54:53.636Z,0.3391,0.7441,-0.5720,0.0125,-0.1437,0.0067,28.412997763990937,76.92538549318853,221.6000,5.7103
2026-02-05T09:54:53.647Z,-1.0177,-1.9525,0.4783,0.0869,-0.1213,0.0316,28.412997763990937,76.92538549318853,221.6000,5.7103
2026-02-05T09:54:53.657Z,-2.2073,0.0228,-1.0246,0.0131,-0.2122,0.0103,28.412997763990937,76.92538549318853,221.6000,5.7103
2026-02-05T09:54:53.667Z,-0.1413,0.7663,-1.7536,0.0309,-0.1485,-0.0077,28.412997763990937,76.92538549318853,221.6000,5.7103
2026-02-05T09:54:53.676Z,-0.1413,0.7663,-1.7536,0.1049,-0.0361,0.0419,28.412997763990937,76.92538549318853,221.6000,5.7103
2026-02-05T09:54:53.686Z,1.7613,-0.7095,1.3304,0.1125,-0.1858,0.0673,28.412997763990937,76.92538549318853,221.6000,5.7103
2026-02-05T09:54:53.696Z,-0.5042,-0.4366,0.4733,-0.0914,-0.1570,-0.0522,28.412997763990937,76.92538549318853,221.6000,5.7103
2026-02-05T09:54:53.707Z,0.0200,1.4677,-0.4565,0.0244,-0.1889,0.0367,28.412997763990937,76.92538549318853,221.6000,5.7103
2026-02-05T09:54:53.717Z,1.6041,0.4707,2.4975,0.2086,-0.0282,-0.0346,28.412997763990937,76.92538549318853,221.6000,5.7103
2026-02-05T09:54:53.726Z,1.6041,0.4707,2.4975,0.0458,-0.0890,0.0480,28.412997763990937,76.92538549318853,221.6000,5.7103
2026-02-05T09:54:53.736Z,0.6032,-1.2770,-1.4766,-0.0960,-0.1030,0.0472,28.412997763990937,76.92538549318853,221.6000,5.7103
2026-02-05T09:54:53.747Z,-0.5952,-0.1443,0.0632,0.0971,-0.1964,-0.0441,28.412997763990937,76.92538549318853,221.6000,5.7103
2026-02-05T09:54:53.757Z,0.8045,1.8231,-0.1598,0.0619,-0.1148,0.0145,28.412997763990937,76.92538549318853,221.6000,5.7103
2026-02-05T09:54:53.767Z,1.4305,2.2868,-3.6176,-0.0387,0.0069,-0.0362,28.412997763990937,76.92538549318853,221.6000,5.7103
2026-02-05T09:54:53.776Z,1.4305,2.2868,-3.6176,0.1006,-0.0375,0.0566,28.412997763990937,76.92538549318853,221.6000,5.7103
2026-02-05T09:54:53.786Z,0.8025,-1.4611,-0.4786,0.0070,-0.0533,0.0110,28.4129562,76.92542291666668,221.6000,5.4531
2026-02-05T09:54:53.796Z,0.1095,-1.7792,-0.7798,-0.0310,0.0797,0.0468,28.4129562,76.92542291666668,221.6000,5.4531
2026-02-05T09:54:53.806Z,0.4682,-0.6589,-2.6989,-0.0048,-0.0443,0.0271,28.4129562,76.92542291666668,221.6000,5.4531
2026-02-05T09:54:53.817Z,1.0367,1.7884,1.3928,0.1146,-0.0449,-0.0762,28.4129562,76.92542291666668,221.6000,5.4531
2026-02-05T09:54:53.826Z,2.6837,0.3727,-1.0319,0.0513,0.0985,-0.0316,28.4129562,76.92542291666668,221.6000,5.4531
2026-02-05T09:54:53.836Z,2.6837,0.3727,-1.0319,-0.0988,0.0129,0.0669,28.4129562,76.92542291666668,221.6000,5.4531
2026-02-05T09:54:53.847Z,1.4773,0.5114,-0.6599,-0.0181,0.1560,0.0067,28.4129562,76.92542291666668,221.6000,5.4531
2026-02-05T09:54:53.857Z,-0.1664,-1.1883,1.1663,0.0114,-0.0596,0.0414,28.4129562,76.92542291666668,221.6000,5.4531
2026-02-05T09:54:53.867Z,-0.6498,-1.1802,0.0190,-0.0286,0.1212,0.0489,28.4129562,76.92542291666668,221.6000,5.4531
2026-02-05T09:54:53.877Z,1.5211,-0.3336,0.6584,-0.1026,0.1276,0.0566,28.4129562,76.92542291666668,221.6000,5.4531
2026-02-05T09:54:53.887Z,0.1528,-0.3942,2.3285,0.0641,0.0829,0.0560,28.4129562,76.92542291666668,221.6000,5.4531
2026-02-05T09:54:53.896Z,0.1528,-0.3942,2.3285,-0.0177,0.0344,0.0516,28.4129562,76.92542291666668,221.6000,5.4531
2026-02-05T09:54:53.908Z,1.0501,0.6425,-1.9971,-0.1286,0.0887,0.0247,28.4129562,76.92542291666668,221.6000,5.4531
2026-02-05T09:54:53.917Z,0.9822,0.7414,0.1651,-0.0298,0.1290,0.0730,28.4129562,76.92542291666668,221.6000,5.4531
2026-02-05T09:54:53.927Z,-1.2314,0.7815,0.4906,-0.1288,-0.0159,0.0314,28.4129562,76.92542291666668,221.6000,5.4531
2026-02-05T09:54:53.936Z,-0.6335,0.4082,-0.4019,-0.1479,0.0974,0.0107,28.4129562,76.92542291666668,221.6000,5.4531
2026-02-05T09:54:53.947Z,-1.2594,-1.1489,1.4983,-0.0850,-0.0819,0.0512,28.4129562,76.92542291666668,221.6000,5.4531
2026-02-05T09:54:53.957Z,-0.3504,-1.3451,1.1285,-0.0977,0.0898,0.0211,28.4129562,76.92542291666668,221.6000,5.4531
2026-02-05T09:54:53.967Z,0.3287,-1.0296,1.0276,-0.1245,0.0980,0.0482,28.4129562,76.92542291666668,221.6000,5.4531
2026-02-05T09:54:53.976Z,0.3287,-1.0296,1.0276,-0.1418,-0.2020,0.0462,28.4129562,76.92542291666668,221.6000,5.4531
2026-02-05T09:54:53.988Z,-2.1341,-0.3709,1.7212,-0.1188,0.2109,0.0272,28.4129562,76.92542291666668,221.6000,5.4531
2026-02-05T09:54:53.996Z,-0.0116,0.0738,1.7550,-0.0100,-0.0764,0.0251,28.4129562,76.92542291666668,221.6000,5.4531
2026-02-05T09:54:54.006Z,-1.6751,0.5718,-0.3442,-0.1081,0.0376,0.0099,28.4129562,76.92542291666668,221.6000,5.4531
2026-02-05T09:54:54.019Z,-1.1794,-0.2944,-1.2823,-0.1405,-0.1628,-0.0493,28.4129562,76.92542291666668,221.6000,5.4531
2026-02-05T09:54:54.026Z,-1.1794,-0.2944,-1.2823,-0.1088,0.0445,0.0341,28.4129562,76.92542291666668,221.6000,5.4531
2026-02-05T09:54:54.037Z,-0.1822,-0.2353,1.1834,-0.0740,-0.0681,0.0264,28.4129562,76.92542291666668,221.6000,5.4531
2026-02-05T09:54:54.047Z,0.2941,0.3414,0.3979,-0.1599,0.0927,0.0462,28.4129562,76.92542291666668,221.6000,5.4531
2026-02-05T09:54:54.057Z,-2.4936,-0.0376,1.0441,-0.0622,-0.1198,-0.0264,28.4129562,76.92542291666668,221.6000,5.4531
2026-02-05T09:54:54.068Z,-0.8420,-0.8661,2.3649,-0.0161,0.0279,-0.0168,28.4129562,76.92542291666668,221.6000,5.4531
2026-02-05T09:54:54.077Z,-0.4251,-1.6590,0.4515,-0.0677,-0.0457,0.0208,28.4129562,76.92542291666668,221.6000,5.4531
2026-02-05T09:54:54.087Z,1.3019,-1.9538,1.3726,-0.0198,0.0809,-0.0093,28.4129562,76.92542291666668,221.6000,5.4531
2026-02-05T09:54:54.096Z,1.3019,-1.9538,1.3726,-0.0307,0.1095,0.0176,28.4129562,76.92542291666668,221.6000,5.4531
2026-02-05T09:54:54.106Z,0.8121,-0.5551,1.6257,0.0706,0.0105,-0.0535,28.4129562,76.92542291666668,221.6000,5.4531
2026-02-05T09:54:54.119Z,1.8308,0.6055,0.8234,0.0337,0.1767,0.0349,28.4129562,76.92542291666668,221.6000,5.4531
2026-02-05T09:54:54.125Z,1.8308,0.6055,0.8234,0.0511,0.0647,-0.0021,28.4129562,76.92542291666668,221.6000,5.4531
2026-02-05T09:54:54.136Z,0.7518,-0.0907,-0.9419,-0.0024,0.0595,-0.0613,28.4129562,76.92542291666668,221.6000,5.4531
2026-02-05T09:54:54.146Z,1.0250,0.2543,0.6274,-0.0288,0.2660,0.0576,28.4129562,76.92542291666668,221.6000,5.4531
2026-02-05T09:54:54.156Z,-2.3472,-1.0142,2.1420,0.1555,-0.0688,0.0376,28.4129562,76.92542291666668,221.6000,5.4531
2026-02-05T09:54:54.167Z,-0.4662,-1.8135,0.3832,0.0093,0.0995,-0.0348,28.4129562,76.92542291666668,221.6000,5.4531
2026-02-05T09:54:54.176Z,1.5201,-2.2519,-0.2717,0.0577,0.0872,-0.0003,28.4129562,76.92542291666668,221.6000,5.4531
2026-02-05T09:54:54.186Z,1.3573,-1.4584,1.9111,0.1830,0.1294,0.0334,28.4129562,76.92542291666668,221.6000,5.4531
2026-02-05T09:54:54.195Z,1.3573,-1.4584,1.9111,0.0860,0.1016,0.0063,28.4129562,76.92542291666668,221.6000,5.4531
2026-02-05T09:54:54.207Z,0.0789,2.9983,-2.6094,0.0498,0.0552,-0.0178,28.4129562,76.92542291666668,221.6000,5.4531
2026-02-05T09:54:54.217Z,-0.7099,0.7407,-0.7591,0.1229,-0.1174,-0.0021,28.4129562,76.92542291666668,221.6000,5.4531
2026-02-05T09:54:54.226Z,0.8092,0.2209,-1.1013,0.1176,0.0308,-0.0933,28.4129562,76.92542291666668,221.6000,5.4531
2026-02-05T09:54:54.238Z,0.8092,0.2209,-1.1013,0.1176,0.0308,-0.0933,28.4129562,76.92542291666668,221.6000,5.4531
2026-02-05T09:54:54.246Z,-0.8149,-2.0652,0.6715,0.0704,0.0369,0.0879,28.4129562,76.92542291666668,221.6000,5.4531
2026-02-05T09:54:54.255Z,-2.4002,0.1038,0.6268,0.1194,0.0479,0.0895,28.4129562,76.92542291666668,221.6000,5.4531
2026-02-05T09:54:54.266Z,-2.7808,0.2377,-0.1223,0.1800,-0.0841,0.0246,28.4129562,76.92542291666668,221.6000,5.4531
2026-02-05T09:54:54.276Z,-0.7866,0.5689,-0.5818,0.1511,-0.0108,-0.0147,28.4129562,76.92542291666668,221.6000,5.4531
2026-02-05T09:54:54.287Z,1.0860,0.5489,-1.7396,0.0961,0.0998,-0.0046,28.4129562,76.92542291666668,221.6000,5.4531
2026-02-05T09:54:54.297Z,0.7731,-0.0710,-2.5041,0.0719,-0.0299,0.0167,28.4129562,76.92542291666668,221.6000,5.4531
2026-02-05T09:54:54.305Z,0.5447,0.6210,-1.3213,0.0985,0.1214,0.0195,28.4129562,76.92542291666668,221.6000,5.4531
2026-02-05T09:54:54.316Z,-1.2736,0.8487,0.0473,0.0761,-0.0665,0.0008,28.4129562,76.92542291666668,221.6000,5.4531
2026-02-05T09:54:54.325Z,-0.6294,-1.4563,0.3129,0.0780,-0.0491,-0.0480,28.4129562,76.92542291666668,221.6000,5.4531
2026-02-05T09:54:54.335Z,-0.6294,-1.4563,0.3129,0.0035,0.1731,0.0613,28.4129562,76.92542291666668,221.6000,5.4531
2026-02-05T09:54:54.346Z,-1.3785,2.0662,0.2391,0.1131,-0.0586,-0.0085,28.4129562,76.92542291666668,221.6000,5.4531
2026-02-05T09:54:54.356Z,1.5829,0.3142,1.9982,0.1948,0.2895,0.0094,28.4129562,76.92542291666668,221.6000,5.4531
2026-02-05T09:54:54.367Z,-3.0057,0.3138,-3.0620,0.0580,-0.2279,0.1104,28.4129562,76.92542291666668,221.6000,5.4531
2026-02-05T09:54:54.376Z,-1.3350,0.4064,-4.0618,-0.0303,0.0471,-0.0324,28.4129562,76.92542291666668,221.6000,5.4531
2026-02-05T09:54:54.387Z,2.2812,-1.6406,0.1143,0.1157,0.0491,-0.0296,28.4129562,76.92542291666668,221.6000,5.4531
2026-02-05T09:54:54.396Z,0.2254,1.0485,-1.8718,-0.0124,0.1334,0.0451,28.4129562,76.92542291666668,221.6000,5.4531
2026-02-05T09:54:54.406Z,-1.1123,0.9928,-1.7627,0.0257,0.0408,0.0606,28.4129562,76.92542291666668,221.6000,5.4531
2026-02-05T09:54:54.416Z,-2.0646,-1.1764,0.7408,0.0986,-0.1341,-0.0696,28.4129562,76.92542291666668,221.6000,5.4531
2026-02-05T09:54:54.426Z,0.5903,0.2168,-1.7276,-0.0883,0.0915,-0.0032,28.4129562,76.92542291666668,221.6000,5.4531
2026-02-05T09:54:54.436Z,1.3583,0.0356,-1.2431,-0.0560,0.0093,-0.0412,28.4129562,76.92542291666668,221.6000,5.4531
2026-02-05T09:54:54.446Z,1.3644,0.5240,2.5758,0.0879,0.1302,0.0428,28.4129562,76.92542291666668,221.6000,5.4531
2026-02-05T09:54:54.456Z,-1.4435,0.6384,0.8804,0.0145,-0.0934,-0.0121,28.4129562,76.92542291666668,221.6000,5.4531
2026-02-05T09:54:54.467Z,0.1598,-0.9687,-0.5750,-0.0650,0.0036,0.0298,28.4129562,76.92542291666668,221.6000,5.4531
2026-02-05T09:54:54.476Z,1.2229,-1.2518,1.5926,0.0322,0.0046,0.0335,28.4129562,76.92542291666668,221.6000,5.4531
2026-02-05T09:54:54.487Z,1.7158,-0.7361,1.1824,-0.0806,0.0552,0.0091,28.4129562,76.92542291666668,221.6000,5.4531
2026-02-05T09:54:54.498Z,0.0122,1.1706,-1.0431,-0.1383,0.0478,0.0248,28.4129562,76.92542291666668,221.6000,5.4531
2026-02-05T09:54:54.507Z,-1.7450,0.7471,1.3039,0.0490,-0.1472,-0.0012,28.4129562,76.92542291666668,221.6000,5.4531
2026-02-05T09:54:54.517Z,0.2622,-0.2030,-0.8149,-0.1464,-0.0371,-0.0490,28.4129562,76.92542291666668,221.6000,5.4531
2026-02-05T09:54:54.526Z,1.8269,-0.7706,-2.3115,-0.1861,0.0834,0.0530,28.4129562,76.92542291666668,221.6000,5.4531
2026-02-05T09:54:54.536Z,1.1472,-2.9422,2.5653,-0.0306,0.1450,0.0979,28.4129562,76.92542291666668,221.6000,5.4531
2026-02-05T09:54:54.546Z,-0.5943,0.6760,1.2109,-0.1881,0.0105,0.0352,28.4129562,76.92542291666668,221.6000,5.4531
2026-02-05T09:54:54.556Z,-0.9177,2.0749,0.0436,-0.2082,0.0069,-0.0420,28.4129562,76.92542291666668,221.6000,5.4531
2026-02-05T09:54:54.567Z,1.5425,2.5626,3.6388,-0.0576,0.0239,-0.0015,28.4129562,76.92542291666668,221.6000,5.4531
2026-02-05T09:54:54.576Z,3.3630,-0.4223,2.6831,0.0156,0.2773,-0.0889,28.4129562,76.92542291666668,221.6000,5.4531
2026-02-05T09:54:54.586Z,0.5950,-2.7272,-2.4413,-0.3429,0.1291,0.1190,28.4129562,76.92542291666668,221.6000,5.4531
2026-02-05T09:54:54.597Z,-1.5787,-0.0605,-2.8148,-0.1740,-0.0656,-0.0312,28.4129562,76.92542291666668,221.6000,5.4531
2026-02-05T09:54:54.608Z,-1.5787,-0.0605,-2.8148,-0.0010,0.2294,0.0278,28.4129562,76.92542291666668,221.6000,5.4531
2026-02-05T09:54:54.616Z,0.0617,1.7248,-0.4371,-0.1932,0.0520,0.0969,28.4129562,76.92542291666668,221.6000,5.4531
2026-02-05T09:54:54.626Z,0.8952,-0.2212,-1.8449,-0.1312,0.2716,-0.0267,28.4129562,76.92542291666668,221.6000,5.4531
2026-02-05T09:54:54.636Z,-0.8269,-0.5764,2.1375,-0.0701,-0.0233,0.1171,28.4129562,76.92542291666668,221.6000,5.4531
2026-02-05T09:54:54.646Z,-1.9681,0.9810,-0.2538,-0.1860,0.0699,-0.0202,28.4129562,76.92542291666668,221.6000,5.4531
2026-02-05T09:54:54.656Z,2.1979,0.6082,-1.4311,-0.1858,0.1927,0.0366,28.4129562,76.92542291666668,221.6000,5.4531
2026-02-05T09:54:54.667Z,-0.7790,0.6507,1.1856,-0.0050,0.0139,0.0794,28.4129562,76.92542291666668,221.6000,5.4531
2026-02-05T09:54:54.676Z,1.2916,-1.2501,1.2983,-0.0728,0.2746,-0.0145,28.4129562,76.92542291666668,221.6000,5.4531
2026-02-05T09:54:54.686Z,-1.2821,-0.6632,-1.8063,-0.1769,-0.1308,0.0622,28.4129562,76.92542291666668,221.6000,5.4531
2026-02-05T09:54:54.696Z,-0.5983,-0.3944,0.6440,-0.0379,0.1894,0.0027,28.4129562,76.92542291666668,221.6000,5.4531
2026-02-05T09:54:54.706Z,0.7728,0.3815,1.8481,-0.0023,0.1200,0.0622,28.4129562,76.92542291666668,221.6000,5.4531
2026-02-05T09:54:54.717Z,-2.5410,-0.1974,-0.8079,-0.0795,-0.0448,0.0334,28.4129562,76.92542291666668,221.6000,5.4531
2026-02-05T09:54:54.726Z,0.9213,-1.2693,-0.4325,-0.0808,0.1990,-0.0701,28.4129562,76.92542291666668,221.6000,5.4531
2026-02-05T09:54:54.736Z,-1.3337,0.7859,-0.3191,-0.0389,-0.0886,0.0630,28.4129562,76.92542291666668,221.6000,5.4531
2026-02-05T09:54:54.746Z,-0.2773,0.3876,0.1363,-0.0091,0.1426,-0.0029,28.4129562,76.92542291666668,221.6000,5.4531
2026-02-05T09:54:54.756Z,1.7822,-0.9586,-0.1429,-0.0873,0.0984,0.0315,28.4129562,76.92542291666668,221.6000,5.4531
2026-02-05T09:54:54.767Z,-1.9274,-0.2139,-1.4826,-0.0623,0.1058,0.0477,28.4129562,76.92542291666668,221.6000,5.4531
2026-02-05T09:54:54.776Z,-2.0322,-1.4564,1.8843,0.0843,-0.0613,0.0497,28.4129562,76.92542291666668,221.6000,5.4531
2026-02-05T09:54:54.787Z,-1.2976,0.3470,0.7199,-0.0548,-0.0105,0.0212,28.4129562,76.92542291666668,221.6000,5.4531
2026-02-05T09:54:54.796Z,0.8621,0.7604,-0.5247,-0.0015,0.0922,0.0335,28.412908666666667,76.9254437,221.6000,5.3502
2026-02-05T09:54:54.806Z,1.3019,-2.0472,1.3856,0.1152,0.1011,0.0120,28.412908666666667,76.9254437,221.6000,5.3502
2026-02-05T09:54:54.817Z,-0.9530,0.2390,-0.7543,-0.0040,0.0176,0.0985,28.412908666666667,76.9254437,221.6000,5.3502
2026-02-05T09:54:54.826Z,-2.5731,-0.1481,-2.2343,0.0056,-0.0369,0.0210,28.412908666666667,76.9254437,221.6000,5.3502
2026-02-05T09:54:54.835Z,-0.3209,-0.1998,0.0886,0.0089,-0.0575,0.0182,28.412908666666667,76.9254437,221.6000,5.3502
2026-02-05T09:54:54.846Z,1.6574,-0.1319,0.4572,0.0473,0.2222,0.0519,28.412908666666667,76.9254437,221.6000,5.3502
2026-02-05T09:54:54.856Z,-0.7267,-1.8011,-0.2460,0.0273,-0.0763,0.0832,28.412908666666667,76.9254437,221.6000,5.3502
2026-02-05T09:54:54.867Z,-2.0636,0.1399,-0.1366,0.0181,0.0957,0.0513,28.412908666666667,76.9254437,221.6000,5.3502
2026-02-05T09:54:54.876Z,-1.6281,0.7297,1.5457,0.0588,-0.1968,0.0171,28.412908666666667,76.9254437,221.6000,5.3502
2026-02-05T09:54:54.886Z,0.6277,-0.4372,0.1019,0.0724,0.1123,-0.0198,28.412908666666667,76.9254437,221.6000,5.3502
2026-02-05T09:54:54.899Z,1.6377,-1.3342,-0.0569,0.0769,0.0640,0.0610,28.412908666666667,76.9254437,221.6000,5.3502
2026-02-05T09:54:54.906Z,-1.5397,-0.4098,-0.1810,0.0322,-0.0208,0.0928,28.412908666666667,76.9254437,221.6000,5.3502
2026-02-05T09:54:54.916Z,-1.8757,0.2612,-0.3486,0.0112,-0.1061,-0.0197,28.412908666666667,76.9254437,221.6000,5.3502
2026-02-05T09:54:54.926Z,-0.4138,-0.3436,0.7495,0.0778,-0.0288,0.0436,28.412908666666667,76.9254437,221.6000,5.3502
2026-02-05T09:54:54.935Z,-0.1160,-1.1334,0.4975,0.0328,-0.1137,0.0327,28.412908666666667,76.9254437,221.6000,5.3502
2026-02-05T09:54:54.947Z,1.3067,0.0710,-0.4956,0.0077,0.1329,0.0311,28.412908666666667,76.9254437,221.6000,5.3502
2026-02-05T09:54:54.956Z,-1.7684,-0.9346,0.0643,0.0939,-0.1655,0.0653,28.412908666666667,76.9254437,221.6000,5.3502
2026-02-05T09:54:54.966Z,-1.8926,0.6654,-0.5141,-0.0058,-0.0421,-0.0080,28.412908666666667,76.9254437,221.6000,5.3502
2026-02-05T09:54:54.976Z,-0.0347,0.2254,0.0586,0.0754,-0.0738,0.0211,28.412908666666667,76.9254437,221.6000,5.3502
2026-02-05T09:54:54.985Z,0.2127,-0.8349,0.9871,0.0682,-0.0457,0.0622,28.412908666666667,76.9254437,221.6000,5.3502
2026-02-05T09:54:54.997Z,0.3226,0.1717,-1.5987,0.0070,0.0182,0.0596,28.412908666666667,76.9254437,221.6000,5.3502
2026-02-05T09:54:55.006Z,-0.4975,-1.1819,-0.4552,0.0680,-0.0540,0.0097,28.412908666666667,76.9254437,221.6000,5.3502
2026-02-05T09:54:55.018Z,-1.0601,-0.1650,0.6810,0.0193,-0.0869,0.0130,28.412908666666667,76.9254437,221.6000,5.3502
2026-02-05T09:54:55.026Z,-0.1858,0.2775,0.3766,0.0798,-0.0785,-0.0068,28.412908666666667,76.9254437,221.6000,5.3502
2026-02-05T09:54:55.036Z,0.7486,-1.1980,-1.0854,-0.0250,0.0664,0.0438,28.412908666666667,76.9254437,221.6000,5.3502
2026-02-05T09:54:55.048Z,-0.6518,0.3008,-0.2608,0.0303,-0.1778,0.0161,28.412908666666667,76.9254437,221.6000,5.3502
2026-02-05T09:54:55.055Z,0.6662,0.0539,1.0128,0.0364,0.1162,0.0532,28.412908666666667,76.9254437,221.6000,5.3502
2026-02-05T09:54:55.066Z,-1.9941,-0.8294,-0.7684,-0.0023,-0.2989,-0.0290,28.412908666666667,76.9254437,221.6000,5.3502
2026-02-05T09:54:55.076Z,0.6151,0.7604,-0.9989,-0.0056,0.1178,0.0382,28.412908666666667,76.9254437,221.6000,5.3502
2026-02-05T09:54:55.085Z,-0.2667,-0.1176,0.6098,0.0953,-0.1367,0.0651,28.412908666666667,76.9254437,221.6000,5.3502
2026-02-05T09:54:55.097Z,-1.7324,0.0773,-1.6458,0.0086,-0.1706,0.0206,28.412908666666667,76.9254437,221.6000,5.3502
2026-02-05T09:54:55.106Z,0.1566,0.8978,-4.1642,-0.1300,-0.0238,0.0229,28.412908666666667,76.9254437,221.6000,5.3502
2026-02-05T09:54:55.117Z,-2.2270,-0.1545,-1.7897,-0.1170,-0.3017,0.0897,28.412908666666667,76.9254437,221.6000,5.3502
2026-02-05T09:54:55.126Z,-1.5823,-0.2623,1.1156,0.0155,-0.2323,-0.0239,28.412908666666667,76.9254437,221.6000,5.3502
2026-02-05T09:54:55.135Z,1.0267,-0.7203,-0.0314,-0.1217,-0.2146,0.0081,28.412908666666667,76.9254437,221.6000,5.3502
2026-02-05T09:54:55.147Z,1.2388,-0.3482,-1.2719,-0.0822,-0.0006,0.0545,28.412908666666667,76.9254437,221.6000,5.3502
2026-02-05T09:54:55.156Z,-0.1240,-1.6877,2.1133,0.0676,-0.0857,0.0715,28.412908666666667,76.9254437,221.6000,5.3502
2026-02-05T09:54:55.166Z,-2.9674,-0.7656,0.2850,-0.1063,-0.2532,0.0486,28.412908666666667,76.9254437,221.6000,5.3502
2026-02-05T09:54:55.176Z,-0.2963,-0.0977,-2.5507,-0.1440,-0.1523,-0.1068,28.412908666666667,76.9254437,221.6000,5.3502
2026-02-05T09:54:55.186Z,2.6737,-0.8097,0.7295,0.0166,0.0540,-0.0377,28.412908666666667,76.9254437,221.6000,5.3502
2026-02-05T09:54:55.197Z,1.2544,0.8459,1.0169,-0.0373,0.0450,0.0605,28.412908666666667,76.9254437,221.6000,5.3502
2026-02-05T09:54:55.206Z,0.1548,-0.2310,-0.9073,-0.1651,0.0278,-0.0005,28.412908666666667,76.9254437,221.6000,5.3502
2026-02-05T09:54:55.217Z,-2.2203,0.1779,-0.7914,-0.0711,-0.0935,0.0291,28.412908666666667,76.9254437,221.6000,5.3502
2026-02-05T09:54:55.225Z,0.4248,-0.6616,1.9293,0.0224,0.0639,-0.0237,28.412908666666667,76.9254437,221.6000,5.3502
2026-02-05T09:54:55.236Z,2.8991,-0.7389,0.9638,-0.0626,0.1683,0.0413,28.412908666666667,76.9254437,221.6000,5.3502
2026-02-05T09:54:55.247Z,-0.0056,0.2174,-1.2650,-0.0863,0.0488,0.0815,28.412908666666667,76.9254437,221.6000,5.3502
2026-02-05T09:54:55.256Z,-0.8694,-0.1814,-0.9485,-0.0771,-0.0446,0.0158,28.412908666666667,76.9254437,221.6000,5.3502
2026-02-05T09:54:55.267Z,-0.5501,1.1535,-0.4190,-0.0742,-0.0870,0.0161,28.412908666666667,76.9254437,221.6000,5.3502
2026-02-05T09:54:55.276Z,1.5251,-1.0288,1.2191,-0.0621,0.0234,0.0463,28.412908666666667,76.9254437,221.6000,5.3502
2026-02-05T09:54:55.286Z,0.9694,-1.0207,0.7779,-0.0538,-0.0834,0.0657,28.412908666666667,76.9254437,221.6000,5.3502
2026-02-05T09:54:55.297Z,0.2232,-0.5233,-0.5877,-0.0826,0.0950,0.0539,28.412908666666667,76.9254437,221.6000,5.3502
2026-02-05T09:54:55.305Z,-1.2305,-1.4893,1.1493,0.0022,-0.1433,0.0134,28.412908666666667,76.9254437,221.6000,5.3502
2026-02-05T09:54:55.317Z,-0.2841,-0.2945,0.9202,-0.0955,-0.0825,0.0521,28.412908666666667,76.9254437,221.6000,5.3502
2026-02-05T09:54:55.326Z,1.2751,-0.1420,-1.2985,-0.0576,0.0511,0.0315,28.412908666666667,76.9254437,221.6000,5.3502
2026-02-05T09:54:55.336Z,0.5873,-0.1578,0.4792,0.0016,0.0304,0.0914,28.412908666666667,76.9254437,221.6000,5.3502
2026-02-05T09:54:55.347Z,-0.1680,-0.4457,1.0090,-0.0544,0.1206,0.0427,28.412908666666667,76.9254437,221.6000,5.3502
2026-02-05T09:54:55.356Z,-1.3474,-1.1481,0.3050,-0.0881,-0.1283,0.0355,28.412908666666667,76.9254437,221.6000,5.3502
2026-02-05T09:54:55.366Z,-0.1665,-1.9050,1.4974,-0.0206,0.0720,0.0394,28.412908666666667,76.9254437,221.6000,5.3502
2026-02-05T09:54:55.376Z,2.4406,-1.1996,3.2454,0.0545,0.1985,0.0743,28.412908666666667,76.9254437,221.6000,5.3502
2026-02-05T09:54:55.386Z,-0.7494,-1.2141,1.4986,-0.0026,-0.0141,0.0852,28.412908666666667,76.9254437,221.6000,5.3502
2026-02-05T09:54:55.397Z,0.8597,-0.9744,0.9933,-0.0074,0.2401,0.0147,28.412908666666667,76.9254437,221.6000,5.3502
2026-02-05T09:54:55.405Z,-0.0665,-0.1391,2.2137,0.1165,-0.0624,0.0699,28.412908666666667,76.9254437,221.6000,5.3502
2026-02-05T09:54:55.417Z,0.6539,0.2043,0.8136,0.0404,0.2271,0.0311,28.412908666666667,76.9254437,221.6000,5.3502
2026-02-05T09:54:55.426Z,1.6981,0.6654,-0.6014,-0.0017,0.1532,0.0475,28.412908666666667,76.9254437,221.6000,5.3502
2026-02-05T09:54:55.436Z,-0.8855,-1.3990,1.2451,0.0525,0.1027,0.0377,28.412908666666667,76.9254437,221.6000,5.3502
2026-02-05T09:54:55.447Z,-0.4250,-1.1229,1.6881,0.0734,0.1257,0.0494,28.412908666666667,76.9254437,221.6000,5.3502
2026-02-05T09:54:55.456Z,-1.0783,-1.8161,0.5877,0.0770,0.0543,0.0581,28.412908666666667,76.9254437,221.6000,5.3502
2026-02-05T09:54:55.465Z,0.3327,-1.3866,1.1368,0.0518,0.1502,0.0604,28.412908666666667,76.9254437,221.6000,5.3502
2026-02-05T09:54:55.475Z,0.3944,-1.2984,2.1550,0.1420,0.0441,0.0654,28.412908666666667,76.9254437,221.6000,5.3502
2026-02-05T09:54:55.486Z,-0.0797,-0.1643,0.3736,0.0781,0.1173,0.0504,28.412908666666667,76.9254437,221.6000,5.3502
2026-02-05T09:54:55.497Z,0.2509,-0.6625,-0.3521,0.1257,0.0707,0.0245,28.412908666666667,76.9254437,221.6000,5.3502
2026-02-05T09:54:55.506Z,-0.6278,0.2027,0.3970,0.0933,0.0287,0.0619,28.412908666666667,76.9254437,221.6000,5.3502
2026-02-05T09:54:55.517Z,-0.5710,-0.1782,-0.1675,0.0621,-0.0143,0.0276,28.412908666666667,76.9254437,221.6000,5.3502
2026-02-05T09:54:55.526Z,1.5138,-1.9641,0.7059,0.0846,0.1498,0.0466,28.412908666666667,76.9254437,221.6000,5.3502
2026-02-05T09:54:55.536Z,-1.6948,-0.6404,-0.4338,0.1224,-0.0795,0.0814,28.412908666666667,76.9254437,221.6000,5.3502
2026-02-05T09:54:55.547Z,-0.5305,-1.9217,0.1414,0.1767,0.1673,0.0032,28.412908666666667,76.9254437,221.6000,5.3502
2026-02-05T09:54:55.555Z,-1.9611,-0.3499,-0.4248,0.0879,-0.1191,0.1447,28.412908666666667,76.9254437,221.6000,5.3502
2026-02-05T09:54:55.566Z,-2.8371,-0.3931,-1.4763,0.1750,-0.0531,0.0633,28.412908666666667,76.9254437,221.6000,5.3502
2026-02-05T09:54:55.576Z,-0.2279,-1.9413,-2.0867,0.1752,-0.0647,0.0405,28.412908666666667,76.9254437,221.6000,5.3502
2026-02-05T09:54:55.586Z,-1.7383,0.0596,-4.4268,0.0461,-0.1427,0.0696,28.412908666666667,76.9254437,221.6000,5.3502
2026-02-05T09:54:55.597Z,-0.1123,0.0650,-1.6487,0.1221,0.0642,0.0269,28.412908666666667,76.9254437,221.6000,5.3502
2026-02-05T09:54:55.606Z,-2.1176,-0.9190,1.5160,0.2283,-0.2425,0.0884,28.412908666666667,76.9254437,221.6000,5.3502
2026-02-05T09:54:55.616Z,-1.7693,-1.1106,-1.2714,0.1047,0.0502,0.0553,28.412908666666667,76.9254437,221.6000,5.3502
2026-02-05T09:54:55.626Z,-1.3222,-2.8816,-1.0700,0.0709,-0.2815,0.0230,28.412908666666667,76.9254437,221.6000,5.3502
2026-02-05T09:54:55.636Z,0.6764,-2.1563,1.2527,0.0836,0.1274,0.0226,28.412908666666667,76.9254437,221.6000,5.3502
2026-02-05T09:54:55.647Z,-0.4465,0.2691,0.9451,0.0924,-0.1227,0.0576,28.412908666666667,76.9254437,221.6000,5.3502
2026-02-05T09:54:55.656Z,-2.5014,-0.1354,0.3481,0.1344,-0.1660,0.0290,28.412908666666667,76.9254437,221.6000,5.3502
2026-02-05T09:54:55.666Z,0.9383,-1.2901,0.3712,0.0637,-0.0176,-0.0035,28.412908666666667,76.9254437,221.6000,5.3502
2026-02-05T09:54:55.675Z,1.6895,-2.2321,-0.5695,0.0340,0.0090,0.0654,28.412908666666667,76.9254437,221.6000,5.3502
2026-02-05T09:54:55.686Z,0.0289,-2.5798,-0.6767,0.0207,0.0396,0.0720,28.412908666666667,76.9254437,221.6000,5.3502
2026-02-05T09:54:55.696Z,-1.6018,0.1823,-1.0873,-0.0231,-0.0991,0.0779,28.412908666666667,76.9254437,221.6000,5.3502
2026-02-05T09:54:55.706Z,-1.1654,-0.3170,-0.5181,0.0959,-0.1222,-0.0142,28.412908666666667,76.9254437,221.6000,5.3502
2026-02-05T09:54:55.717Z,1.3033,-1.8836,-0.4465,0.0559,0.0292,0.0373,28.412908666666667,76.9254437,221.6000,5.3502
2026-02-05T09:54:55.726Z,0.5422,-1.2452,-3.3271,-0.0160,-0.0092,0.0645,28.412908666666667,76.9254437,221.6000,5.3502
2026-02-05T09:54:55.736Z,-0.7302,-2.1221,-3.1769,-0.0046,-0.0339,0.1103,28.412908666666667,76.9254437,221.6000,5.3502
2026-02-05T09:54:55.746Z,-2.5966,-1.1799,-1.5065,0.0114,-0.2294,0.0697,28.412908666666667,76.9254437,221.6000,5.3502
2026-02-05T09:54:55.756Z,0.2245,-0.6947,-0.4166,-0.0197,-0.0178,0.0378,28.412908666666667,76.9254437,221.6000,5.3502
2026-02-05T09:54:55.766Z,1.0039,-1.3821,-0.2853,0.0057,0.0064,0.0712,28.412908666666667,76.9254437,221.6000,5.3502
2026-02-05T09:54:55.776Z,-1.3333,-1.7766,-0.4957,-0.0019,-0.0966,0.0856,28.412908666666667,76.9254437,221.6000,5.3502
2026-02-05T09:54:55.786Z,-2.0430,-1.2147,-0.9892,-0.1006,-0.1522,0.0201,28.412861816666666,76.92546418333332,221.6000,5.4531
2026-02-05T09:54:55.797Z,-2.0430,-1.2147,-0.9892,0.0301,-0.1508,-0.0377,28.412861816666666,76.92546418333332,221.6000,5.4531
2026-02-05T09:54:55.806Z,2.3980,-1.2686,0.7974,-0.0652,0.0583,0.0165,28.412861816666666,76.92546418333332,221.6000,5.4531
2026-02-05T09:54:55.816Z,0.4677,0.2518,-1.0873,-0.1329,-0.0891,0.0858,28.412861816666666,76.92546418333332,221.6000,5.4531
2026-02-05T09:54:55.826Z,0.0466,-2.4970,1.0610,0.0050,-0.0009,0.0114,28.412861816666666,76.92546418333332,221.6000,5.4531
2026-02-05T09:54:55.836Z,-1.0878,-2.5033,1.2173,-0.0590,-0.1956,0.0363,28.412861816666666,76.92546418333332,221.6000,5.4531
2026-02-05T09:54:55.846Z,1.1504,-1.5680,-0.6592,-0.1284,0.0741,0.0102,28.412861816666666,76.92546418333332,221.6000,5.4531
2026-02-05T09:54:55.856Z,1.5178,-1.0841,0.5919,-0.1098,-0.0019,0.0872,28.412861816666666,76.92546418333332,221.6000,5.4531
2026-02-05T09:54:55.867Z,-0.3404,-0.5646,1.3426,-0.0673,0.0005,0.0779,28.412861816666666,76.92546418333332,221.6000,5.4531
2026-02-05T09:54:55.875Z,1.3330,-2.1170,0.6142,-0.1245,0.0641,0.0396,28.412861816666666,76.92546418333332,221.6000,5.4531
2026-02-05T09:54:55.886Z,-0.7716,-1.1490,-0.9525,-0.1708,-0.1213,0.0674,28.412861816666666,76.92546418333332,221.6000,5.4531
2026-02-05T09:54:55.896Z,1.4410,-1.0996,0.6047,-0.0807,0.1893,0.0463,28.412861816666666,76.92546418333332,221.6000,5.4531
2026-02-05T09:54:55.906Z,1.3040,-1.3235,1.3174,-0.1405,-0.0176,0.0941,28.412861816666666,76.92546418333332,221.6000,5.4531
2026-02-05T09:54:55.916Z,-0.2236,-1.2271,-0.3861,-0.1652,0.0794,0.0579,28.412861816666666,76.92546418333332,221.6000,5.4531
2026-02-05T09:54:55.926Z,0.6741,-1.8657,0.4666,-0.1299,0.0580,0.0499,28.412861816666666,76.92546418333332,221.6000,5.4531
2026-02-05T09:54:55.936Z,-0.8503,-1.1924,0.1330,-0.0671,-0.0743,0.0535,28.412861816666666,76.92546418333332,221.6000,5.4531
2026-02-05T09:54:55.947Z,2.3754,-1.5765,0.1422,-0.1791,0.2215,0.0362,28.412861816666666,76.92546418333332,221.6000,5.4531
2026-02-05T09:54:55.955Z,0.6931,-0.9470,0.4623,-0.1431,0.0092,0.1115,28.412861816666666,76.92546418333332,221.6000,5.4531
2026-02-05T09:54:55.965Z,-0.3667,-1.9288,1.0044,-0.0807,0.1679,0.0319,28.412861816666666,76.92546418333332,221.6000,5.4531
2026-02-05T09:54:55.976Z,-1.0230,-1.6912,-0.3185,-0.1445,-0.1008,0.0430,28.412861816666666,76.92546418333332,221.6000,5.4531
2026-02-05T09:54:55.986Z,-0.1776,-1.8824,-0.4302,-0.1059,0.1309,0.0561,28.412861816666666,76.92546418333332,221.6000,5.4531
2026-02-05T09:54:55.997Z,1.0500,-1.5857,0.9169,-0.0593,0.0433,0.0661,28.412861816666666,76.92546418333332,221.6000,5.4531
2026-02-05T09:54:56.006Z,0.0025,-1.0203,-0.1397,-0.0820,0.0978,0.0706,28.412861816666666,76.92546418333332,221.6000,5.4531
2026-02-05T09:54:56.016Z,-0.0431,-1.7401,-0.3003,-0.1060,0.1004,0.0744,28.412861816666666,76.92546418333332,221.6000,5.4531
2026-02-05T09:54:56.026Z,-1.4766,-1.6781,-0.1230,-0.1098,-0.1341,0.0343,28.412861816666666,76.92546418333332,221.6000,5.4531
2026-02-05T09:54:56.036Z,1.3553,-1.7371,0.3269,-0.0634,0.2524,0.0388,28.412861816666666,76.92546418333332,221.6000,5.4531
2026-02-05T09:54:56.045Z,-0.4992,-1.8793,0.5701,-0.0052,-0.0834,0.0729,28.412861816666666,76.92546418333332,221.6000,5.4531
2026-02-05T09:54:56.056Z,-0.6025,-1.0061,-0.0129,-0.0861,0.1363,0.0360,28.412861816666666,76.92546418333332,221.6000,5.4531
2026-02-05T09:54:56.066Z,0.2058,-1.8337,0.5404,-0.0535,-0.0266,0.0665,28.412861816666666,76.92546418333332,221.6000,5.4531
2026-02-05T09:54:56.076Z,-1.0766,-0.7895,0.1261,-0.0365,0.0902,0.0239,28.412861816666666,76.92546418333332,221.6000,5.4531
2026-02-05T09:54:56.086Z,-0.7683,0.8494,-0.0915,0.0157,-0.0014,0.0425,28.412861816666666,76.92546418333332,221.6000,5.4531
2026-02-05T09:54:56.096Z,-0.9867,-0.2642,0.0811,0.0042,0.0319,0.0427,28.412861816666666,76.92546418333332,221.6000,5.4531
2026-02-05T09:54:56.106Z,0.3322,-0.7936,-0.3548,0.0240,0.0173,0.0398,28.412861816666666,76.92546418333332,221.6000,5.4531
2026-02-05T09:54:56.116Z,0.5006,-2.1624,0.5947,0.0251,0.1333,0.0708,28.412861816666666,76.92546418333332,221.6000,5.4531
2026-02-05T09:54:56.126Z,-1.3853,-0.5122,0.3424,-0.0162,-0.0149,0.0406,28.412861816666666,76.92546418333332,221.6000,5.4531
2026-02-05T09:54:56.136Z,-1.3164,-0.3640,0.4646,0.0541,-0.0540,0.0169,28.412861816666666,76.92546418333332,221.6000,5.4531
2026-02-05T09:54:56.146Z,0.2919,-0.7570,0.6234,0.0283,0.0794,0.0481,28.412861816666666,76.92546418333332,221.6000,5.4531
2026-02-05T09:54:56.156Z,-0.4130,-0.5328,-0.0260,0.0716,-0.0232,0.0392,28.412861816666666,76.92546418333332,221.6000,5.4531
2026-02-05T09:54:56.165Z,0.1116,-1.0653,0.2041,0.0606,0.1521,0.0498,28.412861816666666,76.92546418333332,221.6000,5.4531
2026-02-05T09:54:56.176Z,-2.2177,-0.0203,-0.5612,0.0256,-0.1757,0.0591,28.412861816666666,76.92546418333332,221.6000,5.4531
2026-02-05T09:54:56.186Z,-0.5958,-0.2854,0.6648,0.0764,0.0762,0.0293,28.412861816666666,76.92546418333332,221.6000,5.4531
2026-02-05T09:54:56.196Z,0.4994,-0.6813,1.5781,0.1198,-0.0366,0.0476,28.412861816666666,76.92546418333332,221.6000,5.4531
2026-02-05T09:54:56.206Z,-0.5193,-0.9860,-0.7973,0.0541,0.0163,0.0513,28.412861816666666,76.92546418333332,221.6000,5.4531
2026-02-05T09:54:56.216Z,-0.4051,-1.4419,-0.9428,0.0552,-0.0299,0.0428,28.412861816666666,76.92546418333332,221.6000,5.4531
2026-02-05T09:54:56.226Z,-1.1707,-0.8398,0.3785,0.0878,-0.0416,0.0248,28.412861816666666,76.92546418333332,221.6000,5.4531
2026-02-05T09:54:56.236Z,-0.1514,-0.4447,-0.0113,0.0615,-0.0430,0.0342,28.412861816666666,76.92546418333332,221.6000,5.4531
2026-02-05T09:54:56.246Z,-0.4979,-0.2997,-0.8367,0.0703,-0.0701,0.0632,28.412861816666666,76.92546418333332,221.6000,5.4531
2026-02-05T09:54:56.256Z,-0.2912,-0.3706,0.2638,0.0914,0.0672,0.0533,28.412861816666666,76.92546418333332,221.6000,5.4531
2026-02-05T09:54:56.266Z,-1.4995,-0.6751,0.0519,0.0716,-0.1583,0.0460,28.412861816666666,76.92546418333332,221.6000,5.4531
2026-02-05T09:54:56.276Z,-0.6099,-0.6372,-0.2716,0.0690,-0.0126,0.0366,28.412861816666666,76.92546418333332,221.6000,5.4531
2026-02-05T09:54:56.286Z,0.4255,0.0428,0.5297,0.0867,-0.0167,0.0826,28.412861816666666,76.92546418333332,221.6000,5.4531
2026-02-05T09:54:56.296Z,-0.6695,-1.0552,-0.0556,0.0628,-0.0724,0.0190,28.412861816666666,76.92546418333332,221.6000,5.4531
2026-02-05T09:54:56.306Z,-0.0776,-0.1618,-0.4834,0.0387,0.0034,0.0644,28.412861816666666,76.92546418333332,221.6000,5.4531
2026-02-05T09:54:56.315Z,-1.5916,-1.1490,-0.2432,0.0902,-0.1880,0.0299,28.412861816666666,76.92546418333332,221.6000,5.4531
2026-02-05T09:54:56.326Z,1.0513,-0.5890,-0.3130,0.0783,0.0791,0.0323,28.412861816666666,76.92546418333332,221.6000,5.4531
2026-02-05T09:54:56.335Z,0.1644,0.1402,-1.0934,0.0313,-0.0406,0.0659,28.412861816666666,76.92546418333332,221.6000,5.4531
2026-02-05T09:54:56.347Z,-1.0936,-0.9133,-0.3096,0.0563,-0.0720,0.0245,28.412861816666666,76.92546418333332,221.6000,5.4531
2026-02-05T09:54:56.356Z,-0.4543,-0.5334,0.0566,0.0486,-0.0514,0.0460,28.412861816666666,76.92546418333332,221.6000,5.4531
2026-02-05T09:54:56.366Z,-0.5390,-0.1839,-0.5315,-0.0067,-0.0334,0.0509,28.412861816666666,76.92546418333332,221.6000,5.4531
2026-02-05T09:54:56.376Z,0.3357,-1.1067,-0.0338,0.0387,-0.0307,0.0578,28.412861816666666,76.92546418333332,221.6000,5.4531
2026-02-05T09:54:56.385Z,0.3001,-0.4768,0.1134,0.0136,-0.0127,0.0377,28.412861816666666,76.92546418333332,221.6000,5.4531
2026-02-05T09:54:56.396Z,-0.0569,0.4373,-0.7597,0.0284,0.0183,0.0390,28.412861816666666,76.92546418333332,221.6000,5.4531
2026-02-05T09:54:56.406Z,-0.7984,-0.1520,-0.0201,0.0625,-0.1168,0.0327,28.412861816666666,76.92546418333332,221.6000,5.4531
2026-02-05T09:54:56.418Z,0.8846,-0.2878,-0.9407,-0.0025,0.0596,0.0178,28.412861816666666,76.92546418333332,221.6000,5.4531
2026-02-05T09:54:56.426Z,0.9056,-1.1036,-1.8311,-0.0635,-0.0101,0.0593,28.412861816666666,76.92546418333332,221.6000,5.4531
2026-02-05T09:54:56.435Z,-0.0248,-0.6017,0.0484,0.0105,0.0308,0.0670,28.412861816666666,76.92546418333332,221.6000,5.4531
2026-02-05T09:54:56.446Z,-0.2769,-0.7351,0.7657,0.0214,0.0091,0.0348,28.412861816666666,76.92546418333332,221.6000,5.4531
2026-02-05T09:54:56.456Z,-0.9265,-0.7801,-1.1848,-0.0808,-0.0983,0.0361,28.412861816666666,76.92546418333332,221.6000,5.4531
2026-02-05T09:54:56.466Z,0.8820,-0.9489,-0.2744,-0.0024,0.1069,0.0460,28.412861816666666,76.92546418333332,221.6000,5.4531
2026-02-05T09:54:56.476Z,0.8387,-0.9661,1.1765,0.0292,-0.0322,0.0539,28.412861816666666,76.92546418333332,221.6000,5.4531
2026-02-05T09:54:56.485Z,-0.6221,0.2689,-1.5546,-0.0903,0.0318,0.0676,28.412861816666666,76.92546418333332,221.6000,5.4531
2026-02-05T09:54:56.496Z,-0.5161,0.0984,-0.9000,-0.0125,-0.0162,0.0305,28.412861816666666,76.92546418333332,221.6000,5.4531
2026-02-05T09:54:56.506Z,-0.0231,-0.2459,0.7550,-0.0088,-0.0112,0.0674,28.412861816666666,76.92546418333332,221.6000,5.4531
2026-02-05T09:54:56.516Z,-0.0847,-0.6888,-1.2952,-0.0777,-0.0039,0.0374,28.412861816666666,76.92546418333332,221.6000,5.4531
2026-02-05T09:54:56.526Z,0.6912,-0.6555,-0.9376,-0.0764,0.0338,0.0637,28.412861816666666,76.92546418333332,221.6000,5.4531
2026-02-05T09:54:56.536Z,-0.3857,-0.7455,0.4891,0.0062,0.0303,0.0613,28.412861816666666,76.92546418333332,221.6000,5.4531
2026-02-05T09:54:56.545Z,0.0544,-1.5090,0.3007,-0.0482,0.0451,0.0572,28.412861816666666,76.92546418333332,221.6000,5.4531
2026-02-05T09:54:56.556Z,-1.1175,-0.2096,-0.2715,-0.0606,-0.0654,0.0678,28.412861816666666,76.92546418333332,221.6000,5.4531
2026-02-05T09:54:56.566Z,0.2315,-0.4113,0.3756,-0.0284,0.1056,0.0477,28.412861816666666,76.92546418333332,221.6000,5.4531
2026-02-05T09:54:56.576Z,0.2420,-1.2509,0.0430,-0.0560,-0.0430,0.0839,28.412861816666666,76.92546418333332,221.6000,5.4531
2026-02-05T09:54:56.586Z,-0.5337,-0.1250,-1.0149,-0.0604,0.0867,0.0467,28.412861816666666,76.92546418333332,221.6000,5.4531
2026-02-05T09:54:56.596Z,0.0244,-0.2097,0.2229,0.0094,0.0463,0.0608,28.412861816666666,76.92546418333332,221.6000,5.4531
2026-02-05T09:54:56.606Z,-1.4980,-0.3306,-0.3134,-0.0611,-0.0769,0.0794,28.412861816666666,76.92546418333332,221.6000,5.4531
2026-02-05T09:54:56.616Z,0.6640,0.0408,-1.2275,-0.1026,0.1145,0.0550,28.412861816666666,76.92546418333332,221.6000,5.4531
2026-02-05T09:54:56.626Z,0.5884,-0.7325,0.5837,0.0244,0.0428,0.0887,28.412861816666666,76.92546418333332,221.6000,5.4531
2026-02-05T09:54:56.635Z,-1.1154,-1.4185,-0.0645,-0.0558,0.0264,0.0748,28.412861816666666,76.92546418333332,221.6000,5.4531
2026-02-05T09:54:56.646Z,-0.4327,-0.5436,-1.3197,-0.1060,0.0188,0.0609,28.412861816666666,76.92546418333332,221.6000,5.4531
2026-02-05T09:54:56.656Z,-0.1387,-1.1013,1.2239,-0.0007,0.0446,0.0925,28.412861816666666,76.92546418333332,221.6000,5.4531
2026-02-05T09:54:56.666Z,0.2182,-1.0371,1.8127,0.0172,0.0561,0.0595,28.412861816666666,76.92546418333332,221.6000,5.4531
2026-02-05T09:54:56.676Z,-0.1393,-0.9448,-0.8693,-0.1066,0.0466,0.0647,28.412861816666666,76.92546418333332,221.6000,5.4531
2026-02-05T09:54:56.686Z,-1.2286,-0.1073,0.5398,0.0004,0.0049,0.0843,28.412861816666666,76.92546418333332,221.6000,5.4531
2026-02-05T09:54:56.696Z,-0.4758,-0.5773,1.3500,0.0135,-0.0114,0.0678,28.412861816666666,76.92546418333332,221.6000,5.4531
2026-02-05T09:54:56.706Z,0.5432,-0.6602,-1.2309,-0.0698,0.1029,0.0864,28.412861816666666,76.92546418333332,221.6000,5.4531
2026-02-05T09:54:56.716Z,-1.0135,-0.1337,-0.3726,-0.0176,-0.0017,0.0957,28.412861816666666,76.92546418333332,221.6000,5.4531
2026-02-05T09:54:56.726Z,-1.3917,0.0133,1.3810,0.0370,-0.0386,0.0653,28.412861816666666,76.92546418333332,221.6000,5.4531
2026-02-05T09:54:56.736Z,-0.5471,-1.5192,-0.7587,-0.1014,0.0217,0.0967,28.412861816666666,76.92546418333332,221.6000,5.4531
2026-02-05T09:54:56.746Z,-0.6306,-1.1753,-0.1670,-0.0209,-0.0176,0.0917,28.412861816666666,76.92546418333332,221.6000,5.4531
2026-02-05T09:54:56.756Z,0.2133,-0.9112,2.3796,0.0520,0.0793,0.0919,28.412861816666666,76.92546418333332,221.6000,5.4531
2026-02-05T09:54:56.766Z,-1.2632,-0.3094,0.3341,-0.0345,-0.0805,0.0912,28.412861816666666,76.92546418333332,221.6000,5.4531
2026-02-05T09:54:56.776Z,-0.8044,-0.2568,-0.8398,-0.0653,0.0807,0.0695,28.412861816666666,76.92546418333332,221.6000,5.4531
2026-02-05T09:54:56.786Z,-1.1626,-0.6525,1.1328,0.0552,-0.1429,0.0952,28.412820783333338,76.92548478333333,221.7000,4.3213
2026-02-05T09:54:56.795Z,-0.2141,-0.7469,0.1608,0.0142,0.0746,0.0670,28.412820783333338,76.92548478333333,221.7000,4.3213
2026-02-05T09:54:56.806Z,0.7782,0.1779,-0.8034,-0.0697,0.0632,0.0984,28.412820783333338,76.92548478333333,221.7000,4.3213
2026-02-05T09:54:56.816Z,-2.0077,-0.5523,0.4679,0.0215,-0.1209,0.0865,28.412820783333338,76.92548478333333,221.7000,4.3213
2026-02-05T09:54:56.826Z,-0.8165,-1.0719,1.0300,0.0183,0.0388,0.0509,28.412820783333338,76.92548478333333,221.7000,4.3213
2026-02-05T09:54:56.836Z,-0.9002,-1.1789,-0.4992,-0.0440,-0.0826,0.0927,28.412820783333338,76.92548478333333,221.7000,4.3213
2026-02-05T09:54:56.845Z,-0.8062,-0.0989,-0.0918,-0.0169,-0.0575,0.0786,28.412820783333338,76.92548478333333,221.7000,4.3213
2026-02-05T09:54:56.856Z,0.4745,-0.5010,1.2372,0.0677,0.0681,0.0935,28.412820783333338,76.92548478333333,221.7000,4.3213
2026-02-05T09:54:56.866Z,-2.0314,-1.0010,-0.1510,-0.0305,-0.1063,0.0840,28.412820783333338,76.92548478333333,221.7000,4.3213
2026-02-05T09:54:56.876Z,-1.2196,-0.1726,-0.8501,-0.0120,-0.0950,0.0508,28.412820783333338,76.92548478333333,221.7000,4.3213
2026-02-05T09:54:56.886Z,1.2092,-1.0468,1.3160,0.0355,0.0392,0.0854,28.412820783333338,76.92548478333333,221.7000,4.3213
2026-02-05T09:54:56.896Z,-0.0857,0.3845,-0.7186,-0.0486,-0.0932,0.0882,28.412820783333338,76.92548478333333,221.7000,4.3213
2026-02-05T09:54:56.906Z,1.0703,0.1957,-0.9724,0.0053,0.1433,0.0660,28.412820783333338,76.92548478333333,221.7000,4.3213
2026-02-05T09:54:56.916Z,-0.9162,-0.0463,0.6221,0.0655,-0.1503,0.0658,28.412820783333338,76.92548478333333,221.7000,4.3213
2026-02-05T09:54:56.926Z,-0.5725,0.4230,-2.1251,-0.0137,0.0374,0.0211,28.412820783333338,76.92548478333333,221.7000,4.3213
2026-02-05T09:54:56.936Z,1.2124,-0.0625,-3.6377,-0.0994,0.1725,0.0844,28.412820783333338,76.92548478333333,221.7000,4.3213
2026-02-05T09:54:56.946Z,0.0191,0.4334,-2.6710,-0.0641,0.1154,0.0909,28.412820783333338,76.92548478333333,221.7000,4.3213
2026-02-05T09:54:56.956Z,0.9330,-0.1808,-1.8290,-0.0804,0.2880,0.0650,28.412820783333338,76.92548478333333,221.7000,4.3213
2026-02-05T09:54:56.966Z,1.2860,-0.5988,-3.5181,-0.1711,0.2862,0.0368,28.412820783333338,76.92548478333333,221.7000,4.3213
2026-02-05T09:54:56.976Z,1.7615,-0.3146,-3.4606,0.0395,0.3908,-0.1449,28.412820783333338,76.92548478333333,221.7000,4.3213
2026-02-05T09:54:56.986Z,0.9831,1.7534,-7.0702,-0.8374,0.4384,0.1882,28.412820783333338,76.92548478333333,221.7000,4.3213
2026-02-05T09:54:56.996Z,0.1305,-1.0113,4.1699,0.0915,0.0896,0.0500,28.412820783333338,76.92548478333333,221.7000,4.3213
2026-02-05T09:54:57.005Z,6.5164,-1.1332,9.8143,0.2199,0.7052,-0.0921,28.412820783333338,76.92548478333333,221.7000,4.3213
2026-02-05T09:54:57.016Z,0.8952,0.2541,-8.6499,-0.5606,0.0811,0.0336,28.412820783333338,76.92548478333333,221.7000,4.3213
2026-02-05T09:54:57.026Z,0.0882,-1.7656,-0.1193,-0.2421,0.1637,0.1330,28.412820783333338,76.92548478333333,221.7000,4.3213
2026-02-05T09:54:57.036Z,1.0166,-2.9844,7.1244,0.2376,0.0965,-0.0035,28.412820783333338,76.92548478333333,221.7000,4.3213
2026-02-05T09:54:57.045Z,0.8226,3.1936,-5.9235,-0.2533,0.1925,0.1164,28.412820783333338,76.92548478333333,221.7000,4.3213
2026-02-05T09:54:57.056Z,-0.5217,0.5479,-8.4715,-0.6726,0.2154,0.2275,28.412820783333338,76.92548478333333,221.7000,4.3213
2026-02-05T09:54:57.065Z,-4.5459,-2.2664,2.9691,-0.0301,-0.2723,0.2668,28.412820783333338,76.92548478333333,221.7000,4.3213
2026-02-05T09:54:57.078Z,-2.3208,-0.1721,6.3844,-0.0124,0.0598,0.0760,28.412820783333338,76.92548478333333,221.7000,4.3213
2026-02-05T09:54:57.086Z,1.1251,0.3675,-3.3693,-0.3010,-0.0034,0.1260,28.412820783333338,76.92548478333333,221.7000,4.3213
2026-02-05T09:54:57.096Z,1.0059,-3.9160,2.6553,-0.0772,0.0022,0.1501,28.412820783333338,76.92548478333333,221.7000,4.3213
2026-02-05T09:54:57.106Z,-1.4005,-1.5159,6.8160,0.0485,-0.0371,0.1043,28.412820783333338,76.92548478333333,221.7000,4.3213
2026-02-05T09:54:57.115Z,-2.0903,-2.0369,0.3404,-0.0917,-0.0804,0.1300,28.412820783333338,76.92548478333333,221.7000,4.3213
2026-02-05T09:54:57.128Z,-2.1095,-2.8272,0.5508,-0.0434,-0.1641,0.0566,28.412820783333338,76.92548478333333,221.7000,4.3213
2026-02-05T09:54:57.136Z,-1.6434,0.3945,1.3349,-0.0188,-0.0959,0.0915,28.412820783333338,76.92548478333333,221.7000,4.3213
2026-02-05T09:54:57.145Z,-1.4626,1.3852,-0.8508,-0.0303,-0.0170,0.0483,28.412820783333338,76.92548478333333,221.7000,4.3213
2026-02-05T09:54:57.156Z,-2.5326,0.7971,-0.7045,-0.1022,-0.0719,0.2684,28.412820783333338,76.92548478333333,221.7000,4.3213
2026-02-05T09:54:57.165Z,-4.6016,0.0420,0.1102,-0.1127,-0.0175,0.3455,28.412820783333338,76.92548478333333,221.7000,4.3213
2026-02-05T09:54:57.177Z,-4.3017,-1.2255,3.1430,0.0068,-0.1543,0.4342,28.412820783333338,76.92548478333333,221.7000,4.3213
2026-02-05T09:54:57.186Z,-3.8602,-2.0313,3.3083,0.0052,-0.0759,0.3344,28.412820783333338,76.92548478333333,221.7000,4.3213
2026-02-05T09:54:57.195Z,-1.9992,-2.5795,2.1029,0.0192,-0.0549,0.1633,28.412820783333338,76.92548478333333,221.7000,4.3213
2026-02-05T09:54:57.206Z,-1.5813,-3.2974,3.5879,0.0990,-0.1130,0.0934,28.412820783333338,76.92548478333333,221.7000,4.3213
2026-02-05T09:54:57.215Z,-0.2496,-1.5042,2.9524,0.0986,-0.0527,0.0129,28.412820783333338,76.92548478333333,221.7000,4.3213
2026-02-05T09:54:57.228Z,-0.8525,0.0171,0.9887,0.0860,-0.1363,0.1430,28.412820783333338,76.92548478333333,221.7000,4.3213
2026-02-05T09:54:57.236Z,-2.3591,1.7400,0.0462,0.0642,-0.2293,0.0212,28.412820783333338,76.92548478333333,221.7000,4.3213
2026-02-05T09:54:57.246Z,0.7471,1.0839,0.6780,0.0981,-0.1111,0.0001,28.412820783333338,76.92548478333333,221.7000,4.3213
2026-02-05T09:54:57.256Z,-0.3684,-0.7030,0.9014,0.0698,-0.1576,0.1156,28.412820783333338,76.92548478333333,221.7000,4.3213
2026-02-05T09:54:57.265Z,-2.8298,-0.4404,0.7589,0.0809,-0.2212,0.0726,28.412820783333338,76.92548478333333,221.7000,4.3213
2026-02-05T09:54:57.278Z,-0.9485,-2.0007,2.5013,0.1348,-0.2125,0.0444,28.412820783333338,76.92548478333333,221.7000,4.3213
2026-02-05T09:54:57.286Z,-2.3610,-1.9890,2.0400,0.1102,-0.3192,0.0924,28.412820783333338,76.92548478333333,221.7000,4.3213
2026-02-05T09:54:57.296Z,-0.2036,-2.3192,1.4437,0.1496,-0.1387,0.0534,28.412820783333338,76.92548478333333,221.7000,4.3213
2026-02-05T09:54:57.306Z,0.0732,-1.8507,2.0193,0.1849,-0.2828,0.0864,28.412820783333338,76.92548478333333,221.7000,4.3213
2026-02-05T09:54:57.315Z,-1.1227,0.1894,-0.2191,0.1262,-0.2666,0.0697,28.412820783333338,76.92548478333333,221.7000,4.3213
2026-02-05T09:54:57.328Z,1.0504,1.0401,0.3106,0.1922,-0.1605,0.0772,28.412820783333338,76.92548478333333,221.7000,4.3213
2026-02-05T09:54:57.336Z,1.0504,1.0401,0.3106,0.1922,-0.1605,0.0772,28.412820783333338,76.92548478333333,221.7000,4.3213
2026-02-05T09:54:57.346Z,-0.7461,0.9931,-0.7186,0.1199,-0.2820,0.0654,28.412820783333338,76.92548478333333,221.7000,4.3213
2026-02-05T09:54:57.356Z,0.3969,0.0668,-1.3716,0.0671,-0.1513,0.0409,28.412820783333338,76.92548478333333,221.7000,4.3213
2026-02-05T09:54:57.365Z,0.1739,-0.6457,0.5473,0.1718,-0.2703,0.0836,28.412820783333338,76.92548478333333,221.7000,4.3213
2026-02-05T09:54:57.378Z,0.4869,-1.0698,0.2537,0.1375,-0.2128,0.0506,28.412820783333338,76.92548478333333,221.7000,4.3213
2026-02-05T09:54:57.386Z,0.0278,-1.6316,-0.5275,0.1375,-0.2128,0.0506,28.412820783333338,76.92548478333333,221.7000,4.3213
2026-02-05T09:54:57.402Z,-0.6278,-1.4688,-0.3341,0.1060,-0.1690,0.0484,28.412820783333338,76.92548478333333,221.7000,4.3213
2026-02-05T09:54:57.405Z,0.8255,-0.4358,0.2649,0.1169,-0.1290,0.0514,28.412820783333338,76.92548478333333,221.7000,4.3213
2026-02-05T09:54:57.416Z,1.0299,0.3294,-0.1603,0.1600,-0.1105,0.0448,28.412820783333338,76.92548478333333,221.7000,4.3213
2026-02-05T09:54:57.426Z,0.6324,1.3380,-1.4553,0.1128,-0.0340,0.0766,28.412820783333338,76.92548478333333,221.7000,4.3213
2026-02-05T09:54:57.436Z,-0.5708,0.9951,-2.0377,0.0863,-0.1891,0.0507,28.412820783333338,76.92548478333333,221.7000,4.3213
2026-02-05T09:54:57.446Z,0.5651,-0.3437,-1.8573,0.0786,-0.0954,0.0321,28.412820783333338,76.92548478333333,221.7000,4.3213
2026-02-05T09:54:57.456Z,1.6374,0.1760,-2.1291,0.0265,-0.0403,0.0215,28.412820783333338,76.92548478333333,221.7000,4.3213
2026-02-05T09:54:57.466Z,1.2565,0.2356,-1.5198,0.0617,-0.0200,0.0671,28.412820783333338,76.92548478333333,221.7000,4.3213
2026-02-05T09:54:57.477Z,1.1076,-0.7306,-0.3743,0.0909,-0.0078,0.0506,28.412820783333338,76.92548478333333,221.7000,4.3213
2026-02-05T09:54:57.485Z,0.6058,-0.9013,-1.2828,0.0212,-0.0487,0.0677,28.412820783333338,76.92548478333333,221.7000,4.3213
2026-02-05T09:54:57.496Z,0.8780,-0.1180,-1.5113,0.0606,0.0332,0.0354,28.412820783333338,76.92548478333333,221.7000,4.3213
2026-02-05T09:54:57.506Z,2.0255,-0.2940,-0.4446,0.1485,0.0769,-0.0010,28.412820783333338,76.92548478333333,221.7000,4.3213
2026-02-05T09:54:57.516Z,1.2037,0.6322,-3.0878,0.0667,0.0953,0.0331,28.412820783333338,76.92548478333333,221.7000,4.3213
2026-02-05T09:54:57.527Z,1.1243,-0.6878,-4.8138,0.0755,0.1583,-0.0043,28.412820783333338,76.92548478333333,221.7000,4.3213
2026-02-05T09:54:57.536Z,1.0338,-0.5342,-4.1718,0.0266,0.1671,0.0252,28.412820783333338,76.92548478333333,221.7000,4.3213
2026-02-05T09:54:57.546Z,0.9457,1.5364,-4.2696,0.0583,0.1649,-0.0454,28.412820783333338,76.92548478333333,221.7000,4.3213
2026-02-05T09:54:57.556Z,2.6759,1.0805,-3.2764,0.0899,0.3333,-0.1428,28.412820783333338,76.92548478333333,221.7000,4.3213
2026-02-05T09:54:57.566Z,1.8921,-0.5129,-3.0536,0.0874,0.2476,-0.1286,28.412820783333338,76.92548478333333,221.7000,4.3213
2026-02-05T09:54:57.577Z,2.1960,-1.1021,-3.4851,0.0644,0.4205,-0.1124,28.412820783333338,76.92548478333333,221.7000,4.3213
2026-02-05T09:54:57.586Z,1.1552,-0.0979,-2.2812,0.1008,0.2755,-0.0186,28.412820783333338,76.92548478333333,221.7000,4.3213
